id,exp_date,sub_age,sub_sex,aq_score,aq_category,block,trial,action_category,action,angle,recog_acc,recog_rt,conf_choice,conf_rt,recog_corr_box,recog_resp_box,days_elapsed
229c63439403e4eab08215d11ad77fd8,03-Aug-2016,21.12024356,f,25,high symptoms,1,1,simple actions,To Jump,247,1,11.23875989,1,3.31895292,4,4,148
229c63439403e4eab08215d11ad77fd8,03-Aug-2016,21.12024356,f,25,high symptoms,1,2,complex actions,To Fight,135,0,24.25360973,0,,3,2,148
229c63439403e4eab08215d11ad77fd8,03-Aug-2016,21.12024356,f,25,high symptoms,2,3,complex actions,To Get Attention,180,1,10.1892846,0,,1,1,148
229c63439403e4eab08215d11ad77fd8,03-Aug-2016,21.12024356,f,25,high symptoms,2,4,simple actions,To Hammer,0,0,12.10372366,1,2.04477435,4,1,148
229c63439403e4eab08215d11ad77fd8,03-Aug-2016,21.12024356,f,25,high symptoms,3,5,complex actions,To Play a Sport,135,1,12.96267983,1,1.52686835,3,3,148
229c63439403e4eab08215d11ad77fd8,03-Aug-2016,21.12024356,f,25,high symptoms,3,6,simple actions,To Kick,180,0,15.61807569,0,,4,2,148
229c63439403e4eab08215d11ad77fd8,03-Aug-2016,21.12024356,f,25,high symptoms,4,7,simple actions,To Push,0,0,12.92148276,1,1.1762135,3,4,148
229c63439403e4eab08215d11ad77fd8,03-Aug-2016,21.12024356,f,25,high symptoms,4,8,complex actions,To Stretch,0,0,19.58408203,0,,1,3,148
229c63439403e4eab08215d11ad77fd8,03-Aug-2016,21.12024356,f,25,high symptoms,5,9,simple actions,To Hammer,180,1,7.30301154,0,,1,1,148
229c63439403e4eab08215d11ad77fd8,03-Aug-2016,21.12024356,f,25,high symptoms,5,10,complex actions,To Stretch,247,1,6.42865163,1,0.9519097,4,4,148
229c63439403e4eab08215d11ad77fd8,03-Aug-2016,21.12024356,f,25,high symptoms,6,11,simple actions,To Kick,135,0,11.89525476,0,,3,1,148
229c63439403e4eab08215d11ad77fd8,03-Aug-2016,21.12024356,f,25,high symptoms,6,12,complex actions,To Play an Instrument,247,1,10.29436156,1,1.53597325,3,3,148
229c63439403e4eab08215d11ad77fd8,03-Aug-2016,21.12024356,f,25,high symptoms,7,13,complex actions,To Play an Instrument,0,0,5.56710016,1,1.67118458,4,3,148
229c63439403e4eab08215d11ad77fd8,03-Aug-2016,21.12024356,f,25,high symptoms,7,14,simple actions,To Grab,135,0,11.97008473,0,,1,4,148
229c63439403e4eab08215d11ad77fd8,03-Aug-2016,21.12024356,f,25,high symptoms,8,15,complex actions,To Argue,180,0,7.86671656,0,,3,4,148
229c63439403e4eab08215d11ad77fd8,03-Aug-2016,21.12024356,f,25,high symptoms,8,16,simple actions,To Jump,180,1,9.42778623,1,1.90795674,1,1,148
229c63439403e4eab08215d11ad77fd8,03-Aug-2016,21.12024356,f,25,high symptoms,9,17,simple actions,To Jump,135,1,5.48178207,0,,3,3,148
229c63439403e4eab08215d11ad77fd8,03-Aug-2016,21.12024356,f,25,high symptoms,9,18,complex actions,To Fight,180,1,8.84089376,1,1.10652486,4,4,148
229c63439403e4eab08215d11ad77fd8,03-Aug-2016,21.12024356,f,25,high symptoms,10,19,simple actions,To Lift,247,1,9.8923053,0,,3,3,148
229c63439403e4eab08215d11ad77fd8,03-Aug-2016,21.12024356,f,25,high symptoms,10,20,complex actions,To Fight,0,1,10.61176012,1,1.77600593,1,1,148
229c63439403e4eab08215d11ad77fd8,03-Aug-2016,21.12024356,f,25,high symptoms,11,21,complex actions,To Play a Sport,247,0,13.9506941,0,,3,2,148
229c63439403e4eab08215d11ad77fd8,03-Aug-2016,21.12024356,f,25,high symptoms,11,22,simple actions,To Punch,0,1,14.04569298,1,1.12834669,4,4,148
229c63439403e4eab08215d11ad77fd8,03-Aug-2016,21.12024356,f,25,high symptoms,12,23,complex actions,To Dance,247,1,13.79360506,1,1.72532472,1,1,148
229c63439403e4eab08215d11ad77fd8,03-Aug-2016,21.12024356,f,25,high symptoms,12,24,simple actions,To Punch,135,1,7.94301554,0,,4,4,148
229c63439403e4eab08215d11ad77fd8,03-Aug-2016,21.12024356,f,25,high symptoms,13,25,complex actions,To Argue,247,1,25.88545342,0,,4,4,148
229c63439403e4eab08215d11ad77fd8,03-Aug-2016,21.12024356,f,25,high symptoms,13,26,simple actions,To Point,135,1,5.7553051,1,1.01416615,3,3,148
229c63439403e4eab08215d11ad77fd8,03-Aug-2016,21.12024356,f,25,high symptoms,14,27,complex actions,To Argue,0,1,11.82102886,0,,1,1,148
229c63439403e4eab08215d11ad77fd8,03-Aug-2016,21.12024356,f,25,high symptoms,14,28,simple actions,To Hammer,247,1,4.09600462,1,1.34943133,2,2,148
229c63439403e4eab08215d11ad77fd8,03-Aug-2016,21.12024356,f,25,high symptoms,15,29,complex actions,To Hurry up,180,1,5.67893881,1,1.73347095,3,3,148
229c63439403e4eab08215d11ad77fd8,03-Aug-2016,21.12024356,f,25,high symptoms,15,30,simple actions,To Grab,180,0,5.09391791,0,,3,4,148
229c63439403e4eab08215d11ad77fd8,03-Aug-2016,21.12024356,f,25,high symptoms,16,31,complex actions,To Stretch,135,1,4.01327524,1,1.32334061,2,2,148
229c63439403e4eab08215d11ad77fd8,03-Aug-2016,21.12024356,f,25,high symptoms,16,32,simple actions,To Jump,0,0,4.35901974,0,,4,2,148
229c63439403e4eab08215d11ad77fd8,03-Aug-2016,21.12024356,f,25,high symptoms,17,33,simple actions,To Lift,135,0,17.04389796,0,,4,3,148
229c63439403e4eab08215d11ad77fd8,03-Aug-2016,21.12024356,f,25,high symptoms,17,34,complex actions,To Clean,247,0,7.3096584,1,2.04571982,2,4,148
229c63439403e4eab08215d11ad77fd8,03-Aug-2016,21.12024356,f,25,high symptoms,18,35,complex actions,To Clean,180,0,8.08005093,0,,3,1,148
229c63439403e4eab08215d11ad77fd8,03-Aug-2016,21.12024356,f,25,high symptoms,18,36,simple actions,To Hammer,135,0,5.38339508,1,1.43427075,4,1,148
229c63439403e4eab08215d11ad77fd8,03-Aug-2016,21.12024356,f,25,high symptoms,19,37,simple actions,To Kick,0,0,3.7047814,0,,4,1,148
229c63439403e4eab08215d11ad77fd8,03-Aug-2016,21.12024356,f,25,high symptoms,19,38,complex actions,To Dance,180,1,3.12460442,1,1.48202185,1,1,148
229c63439403e4eab08215d11ad77fd8,03-Aug-2016,21.12024356,f,25,high symptoms,20,39,complex actions,To Dance,0,1,6.87502425,1,1.71016119,2,2,148
229c63439403e4eab08215d11ad77fd8,03-Aug-2016,21.12024356,f,25,high symptoms,20,40,simple actions,To Point,247,0,5.41123992,0,,1,2,148
229c63439403e4eab08215d11ad77fd8,03-Aug-2016,21.12024356,f,25,high symptoms,21,41,simple actions,To Point,180,0,9.33657185,0,,4,2,148
229c63439403e4eab08215d11ad77fd8,03-Aug-2016,21.12024356,f,25,high symptoms,21,42,complex actions,To Hurry up,247,1,7.89411616,1,1.07658143,4,4,148
229c63439403e4eab08215d11ad77fd8,03-Aug-2016,21.12024356,f,25,high symptoms,22,43,complex actions,To Hurry up,135,1,4.58535702,0,,4,4,148
229c63439403e4eab08215d11ad77fd8,03-Aug-2016,21.12024356,f,25,high symptoms,22,44,simple actions,To Wave,180,1,3.81251218,1,1.19098019,3,3,148
229c63439403e4eab08215d11ad77fd8,03-Aug-2016,21.12024356,f,25,high symptoms,23,45,complex actions,To Get Attention,0,1,9.60523073,0,,1,1,148
229c63439403e4eab08215d11ad77fd8,03-Aug-2016,21.12024356,f,25,high symptoms,23,46,simple actions,To Wave,135,0,6.15273127,1,1.83000352,2,1,148
229c63439403e4eab08215d11ad77fd8,03-Aug-2016,21.12024356,f,25,high symptoms,24,47,simple actions,To Push,135,0,5.85981892,0,,4,1,148
229c63439403e4eab08215d11ad77fd8,03-Aug-2016,21.12024356,f,25,high symptoms,24,48,complex actions,To Clean,135,0,6.82607691,1,2.13304983,4,2,148
229c63439403e4eab08215d11ad77fd8,03-Aug-2016,21.12024356,f,25,high symptoms,25,49,simple actions,To Kick,247,0,5.11799804,0,,4,1,148
229c63439403e4eab08215d11ad77fd8,03-Aug-2016,21.12024356,f,25,high symptoms,25,50,complex actions,To Dance,135,1,9.9134232,1,1.40116756,1,1,148
229c63439403e4eab08215d11ad77fd8,03-Aug-2016,21.12024356,f,25,high symptoms,26,51,complex actions,To Hurry up,0,0,10.26343748,0,,2,3,148
229c63439403e4eab08215d11ad77fd8,03-Aug-2016,21.12024356,f,25,high symptoms,26,52,simple actions,To Push,247,0,8.92119239,1,1.464329,3,2,148
229c63439403e4eab08215d11ad77fd8,03-Aug-2016,21.12024356,f,25,high symptoms,27,53,complex actions,To Get Attention,135,0,10.04357855,1,1.5293937,1,2,148
229c63439403e4eab08215d11ad77fd8,03-Aug-2016,21.12024356,f,25,high symptoms,27,54,simple actions,To Grab,0,0,9.78911179,0,,3,1,148
229c63439403e4eab08215d11ad77fd8,03-Aug-2016,21.12024356,f,25,high symptoms,28,55,complex actions,To Play an Instrument,135,1,6.98595,1,1.11850267,3,3,148
229c63439403e4eab08215d11ad77fd8,03-Aug-2016,21.12024356,f,25,high symptoms,28,56,simple actions,To Punch,180,1,3.98932006,0,,2,2,148
229c63439403e4eab08215d11ad77fd8,03-Aug-2016,21.12024356,f,25,high symptoms,29,57,simple actions,To Grab,247,0,8.12130651,1,1.31075346,1,2,148
229c63439403e4eab08215d11ad77fd8,03-Aug-2016,21.12024356,f,25,high symptoms,29,58,complex actions,To Get Attention,247,1,7.10302149,0,,2,2,148
229c63439403e4eab08215d11ad77fd8,03-Aug-2016,21.12024356,f,25,high symptoms,30,59,simple actions,To Point,0,0,10.43283693,0,,1,4,148
229c63439403e4eab08215d11ad77fd8,03-Aug-2016,21.12024356,f,25,high symptoms,30,60,complex actions,To Fight,247,1,6.21129693,1,2.20495056,1,1,148
229c63439403e4eab08215d11ad77fd8,03-Aug-2016,21.12024356,f,25,high symptoms,31,61,complex actions,To Play a Sport,0,0,6.53979163,0,,2,1,148
229c63439403e4eab08215d11ad77fd8,03-Aug-2016,21.12024356,f,25,high symptoms,31,62,simple actions,To Wave,247,0,7.54499675,1,1.84480057,3,1,148
229c63439403e4eab08215d11ad77fd8,03-Aug-2016,21.12024356,f,25,high symptoms,32,63,simple actions,To Push,180,1,16.36433969,0,,2,2,148
229c63439403e4eab08215d11ad77fd8,03-Aug-2016,21.12024356,f,25,high symptoms,32,64,complex actions,To Clean,0,1,8.45730994,1,1.0014545,3,3,148
229c63439403e4eab08215d11ad77fd8,03-Aug-2016,21.12024356,f,25,high symptoms,33,65,simple actions,To Lift,180,0,9.85673835,0,,3,4,148
229c63439403e4eab08215d11ad77fd8,03-Aug-2016,21.12024356,f,25,high symptoms,33,66,complex actions,To Stretch,180,1,3.24901835,1,1.18519565,2,2,148
229c63439403e4eab08215d11ad77fd8,03-Aug-2016,21.12024356,f,25,high symptoms,34,67,complex actions,To Play an Instrument,180,1,2.055581,1,1.21738813,3,3,148
229c63439403e4eab08215d11ad77fd8,03-Aug-2016,21.12024356,f,25,high symptoms,34,68,simple actions,To Wave,0,0,3.99943994,0,,2,3,148
229c63439403e4eab08215d11ad77fd8,03-Aug-2016,21.12024356,f,25,high symptoms,35,69,simple actions,To Lift,0,0,13.11149417,0,,1,2,148
229c63439403e4eab08215d11ad77fd8,03-Aug-2016,21.12024356,f,25,high symptoms,35,70,complex actions,To Play a Sport,180,1,1.86274375,1,0.9868695,2,2,148
229c63439403e4eab08215d11ad77fd8,03-Aug-2016,21.12024356,f,25,high symptoms,36,71,complex actions,To Argue,135,1,12.10020885,0,,1,1,148
229c63439403e4eab08215d11ad77fd8,03-Aug-2016,21.12024356,f,25,high symptoms,36,72,simple actions,To Punch,247,1,3.16528718,1,0.88140494,3,3,148
d290105c8bca9f1a8fe2a126da9b6f8e,04-Apr-2016,20.96692056,f,11,low symptoms,1,1,simple actions,To Kick,247,0,16.80880061,0,,2,3,75
d290105c8bca9f1a8fe2a126da9b6f8e,04-Apr-2016,20.96692056,f,11,low symptoms,1,2,complex actions,To Stretch,180,0,18.65351884,1,2.23868456,3,2,75
d290105c8bca9f1a8fe2a126da9b6f8e,04-Apr-2016,20.96692056,f,11,low symptoms,2,3,complex actions,To Play an Instrument,247,1,17.80849561,1,1.03088509,3,3,75
d290105c8bca9f1a8fe2a126da9b6f8e,04-Apr-2016,20.96692056,f,11,low symptoms,2,4,simple actions,To Wave,135,1,10.35691055,0,,1,1,75
d290105c8bca9f1a8fe2a126da9b6f8e,04-Apr-2016,20.96692056,f,11,low symptoms,3,5,complex actions,To Stretch,0,1,8.52554316,0,,2,2,75
d290105c8bca9f1a8fe2a126da9b6f8e,04-Apr-2016,20.96692056,f,11,low symptoms,3,6,simple actions,To Jump,247,0,7.39660685,1,1.91291009,2,3,75
d290105c8bca9f1a8fe2a126da9b6f8e,04-Apr-2016,20.96692056,f,11,low symptoms,4,7,simple actions,To Kick,0,1,8.14041414,1,1.94539483,3,3,75
d290105c8bca9f1a8fe2a126da9b6f8e,04-Apr-2016,20.96692056,f,11,low symptoms,4,8,complex actions,To Hurry up,247,1,10.05041858,0,,3,3,75
d290105c8bca9f1a8fe2a126da9b6f8e,04-Apr-2016,20.96692056,f,11,low symptoms,5,9,complex actions,To Argue,247,0,26.77519478,1,1.22410479,3,1,75
d290105c8bca9f1a8fe2a126da9b6f8e,04-Apr-2016,20.96692056,f,11,low symptoms,5,10,simple actions,To Jump,0,1,8.24917003,0,,4,4,75
d290105c8bca9f1a8fe2a126da9b6f8e,04-Apr-2016,20.96692056,f,11,low symptoms,6,11,complex actions,To Clean,180,1,3.82120313,1,1.91005431,1,1,75
d290105c8bca9f1a8fe2a126da9b6f8e,04-Apr-2016,20.96692056,f,11,low symptoms,6,12,simple actions,To Grab,180,1,17.6730856,0,,1,1,75
d290105c8bca9f1a8fe2a126da9b6f8e,04-Apr-2016,20.96692056,f,11,low symptoms,7,13,complex actions,To Dance,135,1,27.04633963,1,0.94006417,3,3,75
d290105c8bca9f1a8fe2a126da9b6f8e,04-Apr-2016,20.96692056,f,11,low symptoms,7,14,simple actions,To Kick,135,1,4.53502441,0,,2,2,75
d290105c8bca9f1a8fe2a126da9b6f8e,04-Apr-2016,20.96692056,f,11,low symptoms,8,15,simple actions,To Punch,135,0,15.32944985,0,,3,2,75
d290105c8bca9f1a8fe2a126da9b6f8e,04-Apr-2016,20.96692056,f,11,low symptoms,8,16,complex actions,To Get Attention,180,1,5.38573018,1,1.02246887,4,4,75
d290105c8bca9f1a8fe2a126da9b6f8e,04-Apr-2016,20.96692056,f,11,low symptoms,9,17,complex actions,To Stretch,135,0,14.26263252,0,,1,3,75
d290105c8bca9f1a8fe2a126da9b6f8e,04-Apr-2016,20.96692056,f,11,low symptoms,9,18,simple actions,To Lift,247,1,17.22304931,1,1.46487746,4,4,75
d290105c8bca9f1a8fe2a126da9b6f8e,04-Apr-2016,20.96692056,f,11,low symptoms,10,19,simple actions,To Point,0,0,13.1802452,0,,2,3,75
d290105c8bca9f1a8fe2a126da9b6f8e,04-Apr-2016,20.96692056,f,11,low symptoms,10,20,complex actions,To Fight,135,1,9.0477632,1,1.15963435,2,2,75
d290105c8bca9f1a8fe2a126da9b6f8e,04-Apr-2016,20.96692056,f,11,low symptoms,11,21,complex actions,To Fight,0,1,14.95082651,0,,4,4,75
d290105c8bca9f1a8fe2a126da9b6f8e,04-Apr-2016,20.96692056,f,11,low symptoms,11,22,simple actions,To Punch,180,0,17.59720055,1,1.26804434,4,1,75
d290105c8bca9f1a8fe2a126da9b6f8e,04-Apr-2016,20.96692056,f,11,low symptoms,12,23,complex actions,To Hurry up,135,1,7.43542579,1,1.40072927,3,3,75
d290105c8bca9f1a8fe2a126da9b6f8e,04-Apr-2016,20.96692056,f,11,low symptoms,12,24,simple actions,To Hammer,0,1,10.82287714,0,,3,3,75
d290105c8bca9f1a8fe2a126da9b6f8e,04-Apr-2016,20.96692056,f,11,low symptoms,13,25,complex actions,To Play a Sport,135,0,13.20315893,0,,4,3,75
d290105c8bca9f1a8fe2a126da9b6f8e,04-Apr-2016,20.96692056,f,11,low symptoms,13,26,simple actions,To Lift,0,1,3.3230764,1,1.05192992,3,3,75
d290105c8bca9f1a8fe2a126da9b6f8e,04-Apr-2016,20.96692056,f,11,low symptoms,14,27,simple actions,To Grab,135,0,13.51792619,0,,2,3,75
d290105c8bca9f1a8fe2a126da9b6f8e,04-Apr-2016,20.96692056,f,11,low symptoms,14,28,complex actions,To Dance,180,1,10.99839039,1,1.0927902,3,3,75
d290105c8bca9f1a8fe2a126da9b6f8e,04-Apr-2016,20.96692056,f,11,low symptoms,15,29,complex actions,To Play a Sport,0,0,13.97846808,0,,1,2,75
d290105c8bca9f1a8fe2a126da9b6f8e,04-Apr-2016,20.96692056,f,11,low symptoms,15,30,simple actions,To Point,180,1,5.99508681,1,1.34475797,2,2,75
d290105c8bca9f1a8fe2a126da9b6f8e,04-Apr-2016,20.96692056,f,11,low symptoms,16,31,complex actions,To Play a Sport,180,1,6.98378388,1,1.98028263,2,2,75
d290105c8bca9f1a8fe2a126da9b6f8e,04-Apr-2016,20.96692056,f,11,low symptoms,16,32,simple actions,To Wave,0,0,10.98538373,0,,4,1,75
d290105c8bca9f1a8fe2a126da9b6f8e,04-Apr-2016,20.96692056,f,11,low symptoms,17,33,simple actions,To Push,0,0,11.91495341,0,,3,4,75
d290105c8bca9f1a8fe2a126da9b6f8e,04-Apr-2016,20.96692056,f,11,low symptoms,17,34,complex actions,To Argue,135,1,10.28324275,1,0.94341778,3,3,75
d290105c8bca9f1a8fe2a126da9b6f8e,04-Apr-2016,20.96692056,f,11,low symptoms,18,35,simple actions,To Hammer,180,1,7.79674936,0,,4,4,75
d290105c8bca9f1a8fe2a126da9b6f8e,04-Apr-2016,20.96692056,f,11,low symptoms,18,36,complex actions,To Get Attention,247,1,7.90880528,1,1.8599984,1,1,75
d290105c8bca9f1a8fe2a126da9b6f8e,04-Apr-2016,20.96692056,f,11,low symptoms,19,37,simple actions,To Hammer,135,1,9.32491932,0,,4,4,75
d290105c8bca9f1a8fe2a126da9b6f8e,04-Apr-2016,20.96692056,f,11,low symptoms,19,38,complex actions,To Dance,247,1,15.94844188,1,1.3765059,2,2,75
d290105c8bca9f1a8fe2a126da9b6f8e,04-Apr-2016,20.96692056,f,11,low symptoms,20,39,complex actions,To Fight,247,1,8.32785934,1,1.59351724,1,1,75
d290105c8bca9f1a8fe2a126da9b6f8e,04-Apr-2016,20.96692056,f,11,low symptoms,20,40,simple actions,To Punch,247,0,18.08783929,0,,1,3,75
d290105c8bca9f1a8fe2a126da9b6f8e,04-Apr-2016,20.96692056,f,11,low symptoms,21,41,complex actions,To Fight,180,1,9.05045044,1,0.93455672,1,1,75
d290105c8bca9f1a8fe2a126da9b6f8e,04-Apr-2016,20.96692056,f,11,low symptoms,21,42,simple actions,To Grab,0,1,8.14012544,0,,3,3,75
d290105c8bca9f1a8fe2a126da9b6f8e,04-Apr-2016,20.96692056,f,11,low symptoms,22,43,complex actions,To Hurry up,180,1,8.51318697,1,0.92540647,2,2,75
d290105c8bca9f1a8fe2a126da9b6f8e,04-Apr-2016,20.96692056,f,11,low symptoms,22,44,simple actions,To Point,247,1,6.74469179,0,,2,2,75
d290105c8bca9f1a8fe2a126da9b6f8e,04-Apr-2016,20.96692056,f,11,low symptoms,23,45,simple actions,To Jump,180,0,11.61493518,0,,1,2,75
d290105c8bca9f1a8fe2a126da9b6f8e,04-Apr-2016,20.96692056,f,11,low symptoms,23,46,complex actions,To Argue,180,1,14.63495898,1,1.07775253,4,4,75
d290105c8bca9f1a8fe2a126da9b6f8e,04-Apr-2016,20.96692056,f,11,low symptoms,24,47,simple actions,To Push,180,0,6.31487556,1,1.87804575,3,2,75
d290105c8bca9f1a8fe2a126da9b6f8e,04-Apr-2016,20.96692056,f,11,low symptoms,24,48,complex actions,To Get Attention,135,0,18.06067774,0,,3,1,75
d290105c8bca9f1a8fe2a126da9b6f8e,04-Apr-2016,20.96692056,f,11,low symptoms,25,49,simple actions,To Push,247,0,10.19792952,0,,3,2,75
d290105c8bca9f1a8fe2a126da9b6f8e,04-Apr-2016,20.96692056,f,11,low symptoms,25,50,complex actions,To Get Attention,0,1,8.57506707,1,1.04295497,4,4,75
d290105c8bca9f1a8fe2a126da9b6f8e,04-Apr-2016,20.96692056,f,11,low symptoms,26,51,simple actions,To Hammer,247,1,7.52120903,0,,3,3,75
d290105c8bca9f1a8fe2a126da9b6f8e,04-Apr-2016,20.96692056,f,11,low symptoms,26,52,complex actions,To Clean,135,1,9.21507454,1,1.69265537,4,4,75
d290105c8bca9f1a8fe2a126da9b6f8e,04-Apr-2016,20.96692056,f,11,low symptoms,27,53,complex actions,To Hurry up,0,1,7.79285607,1,2.2500649,1,1,75
d290105c8bca9f1a8fe2a126da9b6f8e,04-Apr-2016,20.96692056,f,11,low symptoms,27,54,simple actions,To Punch,0,0,8.51663725,0,,2,3,75
d290105c8bca9f1a8fe2a126da9b6f8e,04-Apr-2016,20.96692056,f,11,low symptoms,28,55,complex actions,To Dance,0,1,14.9251529,0,,4,4,75
d290105c8bca9f1a8fe2a126da9b6f8e,04-Apr-2016,20.96692056,f,11,low symptoms,28,56,simple actions,To Kick,180,1,3.86311171,1,1.10464737,2,2,75
d290105c8bca9f1a8fe2a126da9b6f8e,04-Apr-2016,20.96692056,f,11,low symptoms,29,57,simple actions,To Wave,247,1,8.00036773,1,2.5542095,4,4,75
d290105c8bca9f1a8fe2a126da9b6f8e,04-Apr-2016,20.96692056,f,11,low symptoms,29,58,complex actions,To Stretch,247,0,23.59455418,0,,4,1,75
d290105c8bca9f1a8fe2a126da9b6f8e,04-Apr-2016,20.96692056,f,11,low symptoms,30,59,simple actions,To Wave,180,0,6.17619669,0,,1,2,75
d290105c8bca9f1a8fe2a126da9b6f8e,04-Apr-2016,20.96692056,f,11,low symptoms,30,60,complex actions,To Play an Instrument,135,1,14.27277566,1,1.08387762,3,3,75
d290105c8bca9f1a8fe2a126da9b6f8e,04-Apr-2016,20.96692056,f,11,low symptoms,31,61,complex actions,To Clean,0,1,18.60749788,0,,1,1,75
d290105c8bca9f1a8fe2a126da9b6f8e,04-Apr-2016,20.96692056,f,11,low symptoms,31,62,simple actions,To Lift,135,1,12.54571504,1,1.23923303,2,2,75
d290105c8bca9f1a8fe2a126da9b6f8e,04-Apr-2016,20.96692056,f,11,low symptoms,32,63,simple actions,To Push,135,0,12.33381557,0,,2,1,75
d290105c8bca9f1a8fe2a126da9b6f8e,04-Apr-2016,20.96692056,f,11,low symptoms,32,64,complex actions,To Play an Instrument,0,1,8.4921819,1,0.84916498,3,3,75
d290105c8bca9f1a8fe2a126da9b6f8e,04-Apr-2016,20.96692056,f,11,low symptoms,33,65,complex actions,To Play an Instrument,180,1,6.25024532,1,1.66130536,3,3,75
d290105c8bca9f1a8fe2a126da9b6f8e,04-Apr-2016,20.96692056,f,11,low symptoms,33,66,simple actions,To Point,135,1,6.80028605,0,,2,2,75
d290105c8bca9f1a8fe2a126da9b6f8e,04-Apr-2016,20.96692056,f,11,low symptoms,34,67,complex actions,To Clean,247,0,12.4785248,1,1.11362773,3,2,75
d290105c8bca9f1a8fe2a126da9b6f8e,04-Apr-2016,20.96692056,f,11,low symptoms,34,68,simple actions,To Jump,135,0,9.5634852,0,,4,2,75
d290105c8bca9f1a8fe2a126da9b6f8e,04-Apr-2016,20.96692056,f,11,low symptoms,35,69,complex actions,To Play a Sport,247,0,8.45063863,0,,1,2,75
d290105c8bca9f1a8fe2a126da9b6f8e,04-Apr-2016,20.96692056,f,11,low symptoms,35,70,simple actions,To Lift,180,1,9.65248454,1,1.39979457,4,4,75
d290105c8bca9f1a8fe2a126da9b6f8e,04-Apr-2016,20.96692056,f,11,low symptoms,36,71,complex actions,To Argue,0,1,15.28302934,1,0.93990038,1,1,75
d290105c8bca9f1a8fe2a126da9b6f8e,04-Apr-2016,20.96692056,f,11,low symptoms,36,72,simple actions,To Grab,247,0,5.0596802,0,,2,1,75
b55702b2d275863602e6704e046f349d,04-Feb-2016,34.69480509,m,10,low symptoms,1,1,complex actions,To Fight,180,1,8.89668448,1,13.64604214,1,1,79
b55702b2d275863602e6704e046f349d,04-Feb-2016,34.69480509,m,10,low symptoms,1,2,simple actions,To Jump,247,1,3.94334424,0,,4,4,79
b55702b2d275863602e6704e046f349d,04-Feb-2016,34.69480509,m,10,low symptoms,2,3,complex actions,To Fight,0,1,21.19943932,1,8.67437208,4,4,79
b55702b2d275863602e6704e046f349d,04-Feb-2016,34.69480509,m,10,low symptoms,2,4,simple actions,To Wave,135,1,8.01768056,0,,4,4,79
b55702b2d275863602e6704e046f349d,04-Feb-2016,34.69480509,m,10,low symptoms,3,5,simple actions,To Point,135,1,20.35044035,0,,3,3,79
b55702b2d275863602e6704e046f349d,04-Feb-2016,34.69480509,m,10,low symptoms,3,6,complex actions,To Play a Sport,247,1,18.4242993,1,2.18200595,4,4,79
b55702b2d275863602e6704e046f349d,04-Feb-2016,34.69480509,m,10,low symptoms,4,7,complex actions,To Play an Instrument,0,1,23.88682822,0,,3,3,79
b55702b2d275863602e6704e046f349d,04-Feb-2016,34.69480509,m,10,low symptoms,4,8,simple actions,To Wave,180,1,6.41748255,1,1.31196825,4,4,79
b55702b2d275863602e6704e046f349d,04-Feb-2016,34.69480509,m,10,low symptoms,5,9,complex actions,To Stretch,180,1,14.86793867,0,,3,3,79
b55702b2d275863602e6704e046f349d,04-Feb-2016,34.69480509,m,10,low symptoms,5,10,simple actions,To Jump,135,1,3.78300102,1,1.37715251,4,4,79
b55702b2d275863602e6704e046f349d,04-Feb-2016,34.69480509,m,10,low symptoms,6,11,simple actions,To Push,135,1,15.66253174,1,4.95438846,2,2,79
b55702b2d275863602e6704e046f349d,04-Feb-2016,34.69480509,m,10,low symptoms,6,12,complex actions,To Dance,180,0,0,0,,3,0,79
b55702b2d275863602e6704e046f349d,04-Feb-2016,34.69480509,m,10,low symptoms,7,13,simple actions,To Punch,180,1,16.75003519,1,1.53840402,3,3,79
b55702b2d275863602e6704e046f349d,04-Feb-2016,34.69480509,m,10,low symptoms,7,14,complex actions,To Argue,135,0,21.86823759,0,,1,4,79
b55702b2d275863602e6704e046f349d,04-Feb-2016,34.69480509,m,10,low symptoms,8,15,simple actions,To Lift,180,0,20.86371578,0,,3,2,79
b55702b2d275863602e6704e046f349d,04-Feb-2016,34.69480509,m,10,low symptoms,8,16,complex actions,To Get Attention,0,1,12.52162987,1,1.3912623,3,3,79
b55702b2d275863602e6704e046f349d,04-Feb-2016,34.69480509,m,10,low symptoms,9,17,complex actions,To Dance,247,0,18.08184953,0,,1,2,79
b55702b2d275863602e6704e046f349d,04-Feb-2016,34.69480509,m,10,low symptoms,9,18,simple actions,To Point,180,0,10.34929355,1,2.14422805,4,2,79
b55702b2d275863602e6704e046f349d,04-Feb-2016,34.69480509,m,10,low symptoms,10,19,simple actions,To Jump,0,1,7.64589242,1,2.70123579,4,4,79
b55702b2d275863602e6704e046f349d,04-Feb-2016,34.69480509,m,10,low symptoms,10,20,complex actions,To Clean,0,1,9.37852102,0,,4,4,79
b55702b2d275863602e6704e046f349d,04-Feb-2016,34.69480509,m,10,low symptoms,11,21,simple actions,To Hammer,180,1,7.10710712,1,1.81582679,1,1,79
b55702b2d275863602e6704e046f349d,04-Feb-2016,34.69480509,m,10,low symptoms,11,22,complex actions,To Dance,0,0,14.74610112,0,,2,1,79
b55702b2d275863602e6704e046f349d,04-Feb-2016,34.69480509,m,10,low symptoms,12,23,simple actions,To Lift,247,0,26.4557076,0,,4,3,79
b55702b2d275863602e6704e046f349d,04-Feb-2016,34.69480509,m,10,low symptoms,12,24,complex actions,To Hurry up,180,1,7.67703448,1,1.11645031,3,3,79
b55702b2d275863602e6704e046f349d,04-Feb-2016,34.69480509,m,10,low symptoms,13,25,simple actions,To Punch,247,0,32.13742194,0,,1,3,79
b55702b2d275863602e6704e046f349d,04-Feb-2016,34.69480509,m,10,low symptoms,13,26,complex actions,To Fight,247,1,5.42372406,1,1.33292058,2,2,79
b55702b2d275863602e6704e046f349d,04-Feb-2016,34.69480509,m,10,low symptoms,14,27,complex actions,To Play an Instrument,135,1,6.78080913,0,,4,4,79
b55702b2d275863602e6704e046f349d,04-Feb-2016,34.69480509,m,10,low symptoms,14,28,simple actions,To Kick,247,1,12.7089942,1,0.99887801,4,4,79
b55702b2d275863602e6704e046f349d,04-Feb-2016,34.69480509,m,10,low symptoms,15,29,simple actions,To Point,247,1,13.94177512,0,,2,2,79
b55702b2d275863602e6704e046f349d,04-Feb-2016,34.69480509,m,10,low symptoms,15,30,complex actions,To Get Attention,247,1,4.87390621,1,1.07169664,2,2,79
b55702b2d275863602e6704e046f349d,04-Feb-2016,34.69480509,m,10,low symptoms,16,31,simple actions,To Grab,0,1,29.22279165,0,,2,2,79
b55702b2d275863602e6704e046f349d,04-Feb-2016,34.69480509,m,10,low symptoms,16,32,complex actions,To Dance,135,1,17.01811298,1,1.05457219,2,2,79
b55702b2d275863602e6704e046f349d,04-Feb-2016,34.69480509,m,10,low symptoms,17,33,complex actions,To Play an Instrument,180,1,6.31693627,1,1.49065519,1,1,79
b55702b2d275863602e6704e046f349d,04-Feb-2016,34.69480509,m,10,low symptoms,17,34,simple actions,To Grab,135,1,17.15761703,0,,3,3,79
b55702b2d275863602e6704e046f349d,04-Feb-2016,34.69480509,m,10,low symptoms,18,35,complex actions,To Get Attention,180,1,6.92692928,1,4.24455848,1,1,79
b55702b2d275863602e6704e046f349d,04-Feb-2016,34.69480509,m,10,low symptoms,18,36,simple actions,To Kick,180,1,13.9886776,0,,3,3,79
b55702b2d275863602e6704e046f349d,04-Feb-2016,34.69480509,m,10,low symptoms,19,37,simple actions,To Grab,180,1,22.00891763,0,,4,4,79
b55702b2d275863602e6704e046f349d,04-Feb-2016,34.69480509,m,10,low symptoms,19,38,complex actions,To Get Attention,135,1,5.09371235,1,1.08394226,3,3,79
b55702b2d275863602e6704e046f349d,04-Feb-2016,34.69480509,m,10,low symptoms,20,39,simple actions,To Push,180,1,7.89710819,0,,3,3,79
b55702b2d275863602e6704e046f349d,04-Feb-2016,34.69480509,m,10,low symptoms,20,40,complex actions,To Clean,180,0,8.72867465,1,2.23210927,1,4,79
b55702b2d275863602e6704e046f349d,04-Feb-2016,34.69480509,m,10,low symptoms,21,41,complex actions,To Stretch,247,1,7.232466,1,0.99057077,4,4,79
b55702b2d275863602e6704e046f349d,04-Feb-2016,34.69480509,m,10,low symptoms,21,42,simple actions,To Grab,247,1,10.55995625,0,,2,2,79
b55702b2d275863602e6704e046f349d,04-Feb-2016,34.69480509,m,10,low symptoms,22,43,complex actions,To Play a Sport,0,1,9.1274593,1,1.12513846,1,1,79
b55702b2d275863602e6704e046f349d,04-Feb-2016,34.69480509,m,10,low symptoms,22,44,simple actions,To Push,247,0,8.24078153,0,,2,4,79
b55702b2d275863602e6704e046f349d,04-Feb-2016,34.69480509,m,10,low symptoms,23,45,complex actions,To Argue,247,1,16.05525419,0,,3,3,79
b55702b2d275863602e6704e046f349d,04-Feb-2016,34.69480509,m,10,low symptoms,23,46,simple actions,To Kick,135,1,5.41072831,1,1.88622923,3,3,79
b55702b2d275863602e6704e046f349d,04-Feb-2016,34.69480509,m,10,low symptoms,24,47,simple actions,To Punch,135,1,10.44383383,0,,3,3,79
b55702b2d275863602e6704e046f349d,04-Feb-2016,34.69480509,m,10,low symptoms,24,48,complex actions,To Stretch,0,1,8.46765548,1,3.42418367,4,4,79
b55702b2d275863602e6704e046f349d,04-Feb-2016,34.69480509,m,10,low symptoms,25,49,complex actions,To Play an Instrument,247,1,12.0727739,1,1.99763647,3,3,79
b55702b2d275863602e6704e046f349d,04-Feb-2016,34.69480509,m,10,low symptoms,25,50,simple actions,To Lift,0,1,15.60264495,0,,4,4,79
b55702b2d275863602e6704e046f349d,04-Feb-2016,34.69480509,m,10,low symptoms,26,51,complex actions,To Play a Sport,135,1,5.42628732,1,1.19177411,4,4,79
b55702b2d275863602e6704e046f349d,04-Feb-2016,34.69480509,m,10,low symptoms,26,52,simple actions,To Push,0,1,5.33905141,0,,4,4,79
b55702b2d275863602e6704e046f349d,04-Feb-2016,34.69480509,m,10,low symptoms,27,53,simple actions,To Lift,135,0,21.23336205,0,,4,1,79
b55702b2d275863602e6704e046f349d,04-Feb-2016,34.69480509,m,10,low symptoms,27,54,complex actions,To Play a Sport,180,1,4.443067,1,1.33246227,1,1,79
b55702b2d275863602e6704e046f349d,04-Feb-2016,34.69480509,m,10,low symptoms,28,55,simple actions,To Hammer,0,1,8.60158742,1,1.54669907,1,1,79
b55702b2d275863602e6704e046f349d,04-Feb-2016,34.69480509,m,10,low symptoms,28,56,complex actions,To Argue,0,0,9.23403647,0,,4,1,79
b55702b2d275863602e6704e046f349d,04-Feb-2016,34.69480509,m,10,low symptoms,29,57,simple actions,To Punch,0,1,26.38233476,1,1.19502281,4,4,79
b55702b2d275863602e6704e046f349d,04-Feb-2016,34.69480509,m,10,low symptoms,29,58,complex actions,To Argue,180,1,8.26273463,0,,1,1,79
b55702b2d275863602e6704e046f349d,04-Feb-2016,34.69480509,m,10,low symptoms,30,59,complex actions,To Hurry up,0,1,16.03923373,0,,1,1,79
b55702b2d275863602e6704e046f349d,04-Feb-2016,34.69480509,m,10,low symptoms,30,60,simple actions,To Wave,247,1,6.59934763,1,1.03650501,3,3,79
b55702b2d275863602e6704e046f349d,04-Feb-2016,34.69480509,m,10,low symptoms,31,61,simple actions,To Hammer,247,1,2.98947371,0,,4,4,79
b55702b2d275863602e6704e046f349d,04-Feb-2016,34.69480509,m,10,low symptoms,31,62,complex actions,To Clean,135,1,12.98271744,1,3.02070221,4,4,79
b55702b2d275863602e6704e046f349d,04-Feb-2016,34.69480509,m,10,low symptoms,32,63,simple actions,To Jump,180,1,6.74820109,0,,2,2,79
b55702b2d275863602e6704e046f349d,04-Feb-2016,34.69480509,m,10,low symptoms,32,64,complex actions,To Fight,135,1,10.24509836,1,1.18356089,3,3,79
b55702b2d275863602e6704e046f349d,04-Feb-2016,34.69480509,m,10,low symptoms,33,65,complex actions,To Stretch,135,1,3.47592785,1,1.61662702,1,1,79
b55702b2d275863602e6704e046f349d,04-Feb-2016,34.69480509,m,10,low symptoms,33,66,simple actions,To Kick,0,1,6.81332177,0,,3,3,79
b55702b2d275863602e6704e046f349d,04-Feb-2016,34.69480509,m,10,low symptoms,34,67,complex actions,To Hurry up,247,1,4.01029976,1,1.13913523,2,2,79
b55702b2d275863602e6704e046f349d,04-Feb-2016,34.69480509,m,10,low symptoms,34,68,simple actions,To Wave,0,1,7.76856625,0,,2,2,79
b55702b2d275863602e6704e046f349d,04-Feb-2016,34.69480509,m,10,low symptoms,35,69,simple actions,To Point,0,1,9.9178622,0,,4,4,79
b55702b2d275863602e6704e046f349d,04-Feb-2016,34.69480509,m,10,low symptoms,35,70,complex actions,To Clean,247,1,7.89843825,1,0.99886853,4,4,79
b55702b2d275863602e6704e046f349d,04-Feb-2016,34.69480509,m,10,low symptoms,36,71,complex actions,To Hurry up,135,1,15.50746736,0,,3,3,79
b55702b2d275863602e6704e046f349d,04-Feb-2016,34.69480509,m,10,low symptoms,36,72,simple actions,To Hammer,135,1,2.39713767,1,1.12828043,2,2,79
ff7d7d253cdf16905b50f29695b958b5,04-Feb-2016,20.03876882,f,12,low symptoms,1,1,simple actions,To Wave,135,1,15.72476536,0,,2,2,90
ff7d7d253cdf16905b50f29695b958b5,04-Feb-2016,20.03876882,f,12,low symptoms,1,2,complex actions,To Stretch,180,1,26.49852853,1,3.89030558,3,3,90
ff7d7d253cdf16905b50f29695b958b5,04-Feb-2016,20.03876882,f,12,low symptoms,2,3,complex actions,To Fight,180,1,22.5918085,1,1.64058886,3,3,90
ff7d7d253cdf16905b50f29695b958b5,04-Feb-2016,20.03876882,f,12,low symptoms,2,4,simple actions,To Jump,247,1,9.81888241,0,,1,1,90
ff7d7d253cdf16905b50f29695b958b5,04-Feb-2016,20.03876882,f,12,low symptoms,3,5,simple actions,To Wave,247,1,15.82036,0,,2,2,90
ff7d7d253cdf16905b50f29695b958b5,04-Feb-2016,20.03876882,f,12,low symptoms,3,6,complex actions,To Play an Instrument,247,0,11.53296377,1,1.20967424,1,3,90
ff7d7d253cdf16905b50f29695b958b5,04-Feb-2016,20.03876882,f,12,low symptoms,4,7,complex actions,To Clean,135,1,18.50104086,1,2.61031153,3,3,90
ff7d7d253cdf16905b50f29695b958b5,04-Feb-2016,20.03876882,f,12,low symptoms,4,8,simple actions,To Hammer,247,1,21.06268962,0,,4,4,90
ff7d7d253cdf16905b50f29695b958b5,04-Feb-2016,20.03876882,f,12,low symptoms,5,9,simple actions,To Point,247,1,15.40267532,0,,4,4,90
ff7d7d253cdf16905b50f29695b958b5,04-Feb-2016,20.03876882,f,12,low symptoms,5,10,complex actions,To Stretch,135,1,8.27571926,1,1.1219265,2,2,90
ff7d7d253cdf16905b50f29695b958b5,04-Feb-2016,20.03876882,f,12,low symptoms,6,11,complex actions,To Dance,180,1,11.76543138,1,1.06585266,1,1,90
ff7d7d253cdf16905b50f29695b958b5,04-Feb-2016,20.03876882,f,12,low symptoms,6,12,simple actions,To Grab,180,0,11.38878378,0,,4,1,90
ff7d7d253cdf16905b50f29695b958b5,04-Feb-2016,20.03876882,f,12,low symptoms,7,13,complex actions,To Hurry up,135,0,12.90780453,1,1.12788112,4,2,90
ff7d7d253cdf16905b50f29695b958b5,04-Feb-2016,20.03876882,f,12,low symptoms,7,14,simple actions,To Kick,135,0,24.77756324,0,,1,3,90
ff7d7d253cdf16905b50f29695b958b5,04-Feb-2016,20.03876882,f,12,low symptoms,8,15,complex actions,To Stretch,0,1,12.63753351,1,1.13635987,4,4,90
ff7d7d253cdf16905b50f29695b958b5,04-Feb-2016,20.03876882,f,12,low symptoms,8,16,simple actions,To Lift,180,1,31.22082555,0,,2,2,90
ff7d7d253cdf16905b50f29695b958b5,04-Feb-2016,20.03876882,f,12,low symptoms,9,17,complex actions,To Fight,247,0,0,0,,4,0,90
ff7d7d253cdf16905b50f29695b958b5,04-Feb-2016,20.03876882,f,12,low symptoms,9,18,simple actions,To Punch,180,1,12.15456357,1,1.38533385,3,3,90
ff7d7d253cdf16905b50f29695b958b5,04-Feb-2016,20.03876882,f,12,low symptoms,10,19,complex actions,To Get Attention,247,1,14.54183452,0,,1,1,90
ff7d7d253cdf16905b50f29695b958b5,04-Feb-2016,20.03876882,f,12,low symptoms,10,20,simple actions,To Push,247,0,13.10728461,1,1.39188688,1,2,90
ff7d7d253cdf16905b50f29695b958b5,04-Feb-2016,20.03876882,f,12,low symptoms,11,21,complex actions,To Fight,135,1,20.40778596,1,1.4410989,3,3,90
ff7d7d253cdf16905b50f29695b958b5,04-Feb-2016,20.03876882,f,12,low symptoms,11,22,simple actions,To Lift,0,0,23.0863429,0,,4,3,90
ff7d7d253cdf16905b50f29695b958b5,04-Feb-2016,20.03876882,f,12,low symptoms,12,23,simple actions,To Point,135,1,22.80567376,1,1.54095231,3,3,90
ff7d7d253cdf16905b50f29695b958b5,04-Feb-2016,20.03876882,f,12,low symptoms,12,24,complex actions,To Get Attention,135,0,14.33913083,0,,3,4,90
ff7d7d253cdf16905b50f29695b958b5,04-Feb-2016,20.03876882,f,12,low symptoms,13,25,complex actions,To Play an Instrument,0,0,6.40505859,1,1.33862477,2,3,90
ff7d7d253cdf16905b50f29695b958b5,04-Feb-2016,20.03876882,f,12,low symptoms,13,26,simple actions,To Point,0,1,9.57193613,0,,3,3,90
ff7d7d253cdf16905b50f29695b958b5,04-Feb-2016,20.03876882,f,12,low symptoms,14,27,complex actions,To Hurry up,0,0,11.69725993,0,,4,1,90
ff7d7d253cdf16905b50f29695b958b5,04-Feb-2016,20.03876882,f,12,low symptoms,14,28,simple actions,To Hammer,0,1,9.63323232,1,4.25927141,4,4,90
ff7d7d253cdf16905b50f29695b958b5,04-Feb-2016,20.03876882,f,12,low symptoms,15,29,complex actions,To Argue,135,0,14.26456082,0,,2,1,90
ff7d7d253cdf16905b50f29695b958b5,04-Feb-2016,20.03876882,f,12,low symptoms,15,30,simple actions,To Lift,135,1,14.51105502,1,1.00139093,3,3,90
ff7d7d253cdf16905b50f29695b958b5,04-Feb-2016,20.03876882,f,12,low symptoms,16,31,complex actions,To Play a Sport,180,1,13.55304668,1,1.67285419,3,3,90
ff7d7d253cdf16905b50f29695b958b5,04-Feb-2016,20.03876882,f,12,low symptoms,16,32,simple actions,To Grab,247,0,12.46696915,0,,2,4,90
ff7d7d253cdf16905b50f29695b958b5,04-Feb-2016,20.03876882,f,12,low symptoms,17,33,complex actions,To Play a Sport,247,1,15.23139742,1,1.53773913,2,2,90
ff7d7d253cdf16905b50f29695b958b5,04-Feb-2016,20.03876882,f,12,low symptoms,17,34,simple actions,To Kick,247,0,8.5383212,0,,3,4,90
ff7d7d253cdf16905b50f29695b958b5,04-Feb-2016,20.03876882,f,12,low symptoms,18,35,simple actions,To Lift,247,1,7.46539525,0,,2,2,90
ff7d7d253cdf16905b50f29695b958b5,04-Feb-2016,20.03876882,f,12,low symptoms,18,36,complex actions,To Clean,0,1,11.70763822,1,1.56448145,4,4,90
ff7d7d253cdf16905b50f29695b958b5,04-Feb-2016,20.03876882,f,12,low symptoms,19,37,complex actions,To Dance,135,0,0,0,,2,0,90
ff7d7d253cdf16905b50f29695b958b5,04-Feb-2016,20.03876882,f,12,low symptoms,19,38,simple actions,To Push,180,1,7.25998621,1,1.35894651,3,3,90
ff7d7d253cdf16905b50f29695b958b5,04-Feb-2016,20.03876882,f,12,low symptoms,20,39,complex actions,To Fight,0,0,6.65261835,0,,2,4,90
ff7d7d253cdf16905b50f29695b958b5,04-Feb-2016,20.03876882,f,12,low symptoms,20,40,simple actions,To Point,180,1,20.00135648,1,2.23528081,3,3,90
ff7d7d253cdf16905b50f29695b958b5,04-Feb-2016,20.03876882,f,12,low symptoms,21,41,simple actions,To Jump,0,1,7.47056896,0,,1,1,90
ff7d7d253cdf16905b50f29695b958b5,04-Feb-2016,20.03876882,f,12,low symptoms,21,42,complex actions,To Argue,180,0,9.3154278,1,1.23365558,4,3,90
ff7d7d253cdf16905b50f29695b958b5,04-Feb-2016,20.03876882,f,12,low symptoms,22,43,complex actions,To Clean,180,1,37.21814626,1,1.88114592,4,4,90
ff7d7d253cdf16905b50f29695b958b5,04-Feb-2016,20.03876882,f,12,low symptoms,22,44,simple actions,To Kick,180,0,9.38325079,0,,3,4,90
ff7d7d253cdf16905b50f29695b958b5,04-Feb-2016,20.03876882,f,12,low symptoms,23,45,simple actions,To Wave,180,0,5.31185411,0,,2,4,90
ff7d7d253cdf16905b50f29695b958b5,04-Feb-2016,20.03876882,f,12,low symptoms,23,46,complex actions,To Argue,247,0,14.29664171,1,2.03570113,2,3,90
ff7d7d253cdf16905b50f29695b958b5,04-Feb-2016,20.03876882,f,12,low symptoms,24,47,simple actions,To Push,135,1,5.84079242,0,,2,2,90
ff7d7d253cdf16905b50f29695b958b5,04-Feb-2016,20.03876882,f,12,low symptoms,24,48,complex actions,To Dance,247,1,12.97817419,1,1.49653552,1,1,90
ff7d7d253cdf16905b50f29695b958b5,04-Feb-2016,20.03876882,f,12,low symptoms,25,49,complex actions,To Play an Instrument,135,0,5.33711449,1,1.58228803,2,3,90
ff7d7d253cdf16905b50f29695b958b5,04-Feb-2016,20.03876882,f,12,low symptoms,25,50,simple actions,To Jump,180,1,9.7900814,0,,1,1,90
ff7d7d253cdf16905b50f29695b958b5,04-Feb-2016,20.03876882,f,12,low symptoms,26,51,simple actions,To Grab,135,1,14.85545262,1,1.79585395,1,1,90
ff7d7d253cdf16905b50f29695b958b5,04-Feb-2016,20.03876882,f,12,low symptoms,26,52,complex actions,To Argue,0,0,16.42655813,0,,1,4,90
ff7d7d253cdf16905b50f29695b958b5,04-Feb-2016,20.03876882,f,12,low symptoms,27,53,simple actions,To Hammer,180,1,16.3300226,0,,1,1,90
ff7d7d253cdf16905b50f29695b958b5,04-Feb-2016,20.03876882,f,12,low symptoms,27,54,complex actions,To Clean,247,1,5.08007453,1,1.21530416,2,2,90
ff7d7d253cdf16905b50f29695b958b5,04-Feb-2016,20.03876882,f,12,low symptoms,28,55,simple actions,To Hammer,135,1,12.17826766,0,,1,1,90
ff7d7d253cdf16905b50f29695b958b5,04-Feb-2016,20.03876882,f,12,low symptoms,28,56,complex actions,To Get Attention,180,1,12.05886482,1,1.25397785,3,3,90
ff7d7d253cdf16905b50f29695b958b5,04-Feb-2016,20.03876882,f,12,low symptoms,29,57,complex actions,To Play a Sport,0,1,2.64008118,1,1.30055706,2,2,90
ff7d7d253cdf16905b50f29695b958b5,04-Feb-2016,20.03876882,f,12,low symptoms,29,58,simple actions,To Punch,0,0,21.07453241,0,,1,4,90
ff7d7d253cdf16905b50f29695b958b5,04-Feb-2016,20.03876882,f,12,low symptoms,30,59,simple actions,To Push,0,1,5.09324069,1,1.28313253,2,2,90
ff7d7d253cdf16905b50f29695b958b5,04-Feb-2016,20.03876882,f,12,low symptoms,30,60,complex actions,To Hurry up,180,0,13.09734471,0,,1,2,90
ff7d7d253cdf16905b50f29695b958b5,04-Feb-2016,20.03876882,f,12,low symptoms,31,61,simple actions,To Jump,135,1,4.26904706,0,,1,1,90
ff7d7d253cdf16905b50f29695b958b5,04-Feb-2016,20.03876882,f,12,low symptoms,31,62,complex actions,To Play an Instrument,180,0,4.39838982,1,1.47886167,4,1,90
ff7d7d253cdf16905b50f29695b958b5,04-Feb-2016,20.03876882,f,12,low symptoms,32,63,simple actions,To Wave,0,0,12.28470253,0,,1,3,90
ff7d7d253cdf16905b50f29695b958b5,04-Feb-2016,20.03876882,f,12,low symptoms,32,64,complex actions,To Stretch,247,1,12.37384341,1,1.05459928,4,4,90
ff7d7d253cdf16905b50f29695b958b5,04-Feb-2016,20.03876882,f,12,low symptoms,33,65,simple actions,To Grab,0,1,16.58157608,0,,1,1,90
ff7d7d253cdf16905b50f29695b958b5,04-Feb-2016,20.03876882,f,12,low symptoms,33,66,complex actions,To Get Attention,0,0,6.77201953,1,1.37121884,1,2,90
ff7d7d253cdf16905b50f29695b958b5,04-Feb-2016,20.03876882,f,12,low symptoms,34,67,complex actions,To Hurry up,247,0,9.78745803,1,1.08394527,1,3,90
ff7d7d253cdf16905b50f29695b958b5,04-Feb-2016,20.03876882,f,12,low symptoms,34,68,simple actions,To Kick,0,0,14.24363286,0,,3,1,90
ff7d7d253cdf16905b50f29695b958b5,04-Feb-2016,20.03876882,f,12,low symptoms,35,69,simple actions,To Punch,247,1,8.17407915,0,,1,1,90
ff7d7d253cdf16905b50f29695b958b5,04-Feb-2016,20.03876882,f,12,low symptoms,35,70,complex actions,To Play a Sport,135,1,6.10759795,1,1.07843972,2,2,90
ff7d7d253cdf16905b50f29695b958b5,04-Feb-2016,20.03876882,f,12,low symptoms,36,71,complex actions,To Dance,0,1,6.8385984,1,1.05455854,4,4,90
ff7d7d253cdf16905b50f29695b958b5,04-Feb-2016,20.03876882,f,12,low symptoms,36,72,simple actions,To Punch,135,0,3.78811051,0,,3,2,90
7b311b019110660156c3439da0dbf2ff,04-May-2016,21.53914391,m,25,high symptoms,1,1,simple actions,To Lift,180,1,15.59235241,1,4.16367966,3,3,64
7b311b019110660156c3439da0dbf2ff,04-May-2016,21.53914391,m,25,high symptoms,1,2,complex actions,To Fight,180,0,22.51506223,0,,2,4,64
7b311b019110660156c3439da0dbf2ff,04-May-2016,21.53914391,m,25,high symptoms,2,3,simple actions,To Hammer,135,0,9.41057954,0,,3,2,64
7b311b019110660156c3439da0dbf2ff,04-May-2016,21.53914391,m,25,high symptoms,2,4,complex actions,To Clean,247,1,5.82322184,1,2.00945341,3,3,64
7b311b019110660156c3439da0dbf2ff,04-May-2016,21.53914391,m,25,high symptoms,3,5,complex actions,To Hurry up,180,1,7.50225422,0,,2,2,64
7b311b019110660156c3439da0dbf2ff,04-May-2016,21.53914391,m,25,high symptoms,3,6,simple actions,To Lift,0,1,5.60415341,1,1.30361265,2,2,64
7b311b019110660156c3439da0dbf2ff,04-May-2016,21.53914391,m,25,high symptoms,4,7,complex actions,To Fight,135,1,15.60906633,0,,2,2,64
7b311b019110660156c3439da0dbf2ff,04-May-2016,21.53914391,m,25,high symptoms,4,8,simple actions,To Lift,135,1,8.06425403,1,2.32551333,3,3,64
7b311b019110660156c3439da0dbf2ff,04-May-2016,21.53914391,m,25,high symptoms,5,9,simple actions,To Hammer,247,0,9.74588367,0,,3,1,64
7b311b019110660156c3439da0dbf2ff,04-May-2016,21.53914391,m,25,high symptoms,5,10,complex actions,To Play a Sport,0,1,13.69710908,1,3.40664832,1,1,64
7b311b019110660156c3439da0dbf2ff,04-May-2016,21.53914391,m,25,high symptoms,6,11,complex actions,To Dance,180,1,7.52116,1,1.12739975,1,1,64
7b311b019110660156c3439da0dbf2ff,04-May-2016,21.53914391,m,25,high symptoms,6,12,simple actions,To Point,247,0,8.33125549,0,,1,2,64
7b311b019110660156c3439da0dbf2ff,04-May-2016,21.53914391,m,25,high symptoms,7,13,complex actions,To Play a Sport,180,1,5.97791211,1,2.10380531,2,2,64
7b311b019110660156c3439da0dbf2ff,04-May-2016,21.53914391,m,25,high symptoms,7,14,simple actions,To Hammer,180,0,13.29527004,0,,3,2,64
7b311b019110660156c3439da0dbf2ff,04-May-2016,21.53914391,m,25,high symptoms,8,15,simple actions,To Jump,247,0,8.49021069,0,,1,2,64
7b311b019110660156c3439da0dbf2ff,04-May-2016,21.53914391,m,25,high symptoms,8,16,complex actions,To Fight,247,1,5.64785461,1,1.61695895,1,1,64
7b311b019110660156c3439da0dbf2ff,04-May-2016,21.53914391,m,25,high symptoms,9,17,simple actions,To Punch,0,1,14.50435891,0,,3,3,64
7b311b019110660156c3439da0dbf2ff,04-May-2016,21.53914391,m,25,high symptoms,9,18,complex actions,To Dance,0,1,7.30775025,1,1.34504429,3,3,64
7b311b019110660156c3439da0dbf2ff,04-May-2016,21.53914391,m,25,high symptoms,10,19,complex actions,To Play an Instrument,180,1,14.46057288,1,1.73450217,1,1,64
7b311b019110660156c3439da0dbf2ff,04-May-2016,21.53914391,m,25,high symptoms,10,20,simple actions,To Push,180,1,10.49441827,0,,4,4,64
7b311b019110660156c3439da0dbf2ff,04-May-2016,21.53914391,m,25,high symptoms,11,21,simple actions,To Hammer,0,0,5.3893204,0,,4,3,64
7b311b019110660156c3439da0dbf2ff,04-May-2016,21.53914391,m,25,high symptoms,11,22,complex actions,To Play an Instrument,135,1,15.10026174,1,2.66297267,4,4,64
7b311b019110660156c3439da0dbf2ff,04-May-2016,21.53914391,m,25,high symptoms,12,23,simple actions,To Push,247,1,5.06068014,1,2.45517159,4,4,64
7b311b019110660156c3439da0dbf2ff,04-May-2016,21.53914391,m,25,high symptoms,12,24,complex actions,To Stretch,180,1,12.3958926,0,,4,4,64
7b311b019110660156c3439da0dbf2ff,04-May-2016,21.53914391,m,25,high symptoms,13,25,simple actions,To Jump,0,1,11.05438306,0,,3,3,64
7b311b019110660156c3439da0dbf2ff,04-May-2016,21.53914391,m,25,high symptoms,13,26,complex actions,To Hurry up,135,1,12.86496591,1,2.53681083,2,2,64
7b311b019110660156c3439da0dbf2ff,04-May-2016,21.53914391,m,25,high symptoms,14,27,simple actions,To Wave,0,0,13.47198715,0,,3,2,64
7b311b019110660156c3439da0dbf2ff,04-May-2016,21.53914391,m,25,high symptoms,14,28,complex actions,To Argue,135,1,21.61987221,1,1.42412358,4,4,64
7b311b019110660156c3439da0dbf2ff,04-May-2016,21.53914391,m,25,high symptoms,15,29,simple actions,To Grab,247,0,10.69280508,0,,3,4,64
7b311b019110660156c3439da0dbf2ff,04-May-2016,21.53914391,m,25,high symptoms,15,30,complex actions,To Get Attention,180,1,11.02418352,1,2.04806888,2,2,64
7b311b019110660156c3439da0dbf2ff,04-May-2016,21.53914391,m,25,high symptoms,16,31,complex actions,To Fight,0,1,5.01522319,1,1.90746998,1,1,64
7b311b019110660156c3439da0dbf2ff,04-May-2016,21.53914391,m,25,high symptoms,16,32,simple actions,To Punch,180,1,14.66693353,0,,4,4,64
7b311b019110660156c3439da0dbf2ff,04-May-2016,21.53914391,m,25,high symptoms,17,33,complex actions,To Get Attention,0,1,5.54987633,0,,1,1,64
7b311b019110660156c3439da0dbf2ff,04-May-2016,21.53914391,m,25,high symptoms,17,34,simple actions,To Point,0,0,13.61373021,1,2.06191387,2,3,64
7b311b019110660156c3439da0dbf2ff,04-May-2016,21.53914391,m,25,high symptoms,18,35,simple actions,To Point,135,0,6.25395389,0,,4,3,64
7b311b019110660156c3439da0dbf2ff,04-May-2016,21.53914391,m,25,high symptoms,18,36,complex actions,To Argue,0,1,10.28957128,1,1.39391052,4,4,64
7b311b019110660156c3439da0dbf2ff,04-May-2016,21.53914391,m,25,high symptoms,19,37,complex actions,To Play a Sport,247,1,13.28546444,1,2.39379437,2,2,64
7b311b019110660156c3439da0dbf2ff,04-May-2016,21.53914391,m,25,high symptoms,19,38,simple actions,To Punch,247,1,8.21269756,0,,4,4,64
7b311b019110660156c3439da0dbf2ff,04-May-2016,21.53914391,m,25,high symptoms,20,39,simple actions,To Punch,135,1,10.06911151,0,,2,2,64
7b311b019110660156c3439da0dbf2ff,04-May-2016,21.53914391,m,25,high symptoms,20,40,complex actions,To Get Attention,247,1,3.33269873,1,1.99784456,2,2,64
7b311b019110660156c3439da0dbf2ff,04-May-2016,21.53914391,m,25,high symptoms,21,41,complex actions,To Hurry up,0,1,2.18978668,1,1.02776706,2,2,64
7b311b019110660156c3439da0dbf2ff,04-May-2016,21.53914391,m,25,high symptoms,21,42,simple actions,To Grab,180,1,22.6499113,0,,2,2,64
7b311b019110660156c3439da0dbf2ff,04-May-2016,21.53914391,m,25,high symptoms,22,43,complex actions,To Stretch,247,1,4.11185059,0,,2,2,64
7b311b019110660156c3439da0dbf2ff,04-May-2016,21.53914391,m,25,high symptoms,22,44,simple actions,To Jump,135,1,13.28552269,1,0.9991521,4,4,64
7b311b019110660156c3439da0dbf2ff,04-May-2016,21.53914391,m,25,high symptoms,23,45,simple actions,To Grab,135,0,9.40779478,0,,2,3,64
7b311b019110660156c3439da0dbf2ff,04-May-2016,21.53914391,m,25,high symptoms,23,46,complex actions,To Play an Instrument,247,1,7.08329186,1,1.05754799,2,2,64
7b311b019110660156c3439da0dbf2ff,04-May-2016,21.53914391,m,25,high symptoms,24,47,simple actions,To Wave,180,0,17.33142741,0,,3,2,64
7b311b019110660156c3439da0dbf2ff,04-May-2016,21.53914391,m,25,high symptoms,24,48,complex actions,To Clean,0,1,10.71237316,1,1.52361847,2,2,64
7b311b019110660156c3439da0dbf2ff,04-May-2016,21.53914391,m,25,high symptoms,25,49,complex actions,To Dance,135,1,4.67239712,1,1.95078118,1,1,64
7b311b019110660156c3439da0dbf2ff,04-May-2016,21.53914391,m,25,high symptoms,25,50,simple actions,To Lift,247,1,3.68822134,0,,3,3,64
7b311b019110660156c3439da0dbf2ff,04-May-2016,21.53914391,m,25,high symptoms,26,51,simple actions,To Push,0,1,9.81586553,1,2.17075037,4,4,64
7b311b019110660156c3439da0dbf2ff,04-May-2016,21.53914391,m,25,high symptoms,26,52,complex actions,To Get Attention,135,1,8.1546548,0,,1,1,64
7b311b019110660156c3439da0dbf2ff,04-May-2016,21.53914391,m,25,high symptoms,27,53,complex actions,To Clean,180,1,3.02023169,1,1.13039276,2,2,64
7b311b019110660156c3439da0dbf2ff,04-May-2016,21.53914391,m,25,high symptoms,27,54,simple actions,To Point,180,0,6.699024,0,,4,2,64
7b311b019110660156c3439da0dbf2ff,04-May-2016,21.53914391,m,25,high symptoms,28,55,simple actions,To Wave,135,0,13.46940024,0,,4,3,64
7b311b019110660156c3439da0dbf2ff,04-May-2016,21.53914391,m,25,high symptoms,28,56,complex actions,To Hurry up,247,1,2.03536822,1,1.03738585,3,3,64
7b311b019110660156c3439da0dbf2ff,04-May-2016,21.53914391,m,25,high symptoms,29,57,complex actions,To Clean,135,1,7.21627871,1,1.7550118,2,2,64
7b311b019110660156c3439da0dbf2ff,04-May-2016,21.53914391,m,25,high symptoms,29,58,simple actions,To Kick,247,0,25.00538485,0,,4,1,64
7b311b019110660156c3439da0dbf2ff,04-May-2016,21.53914391,m,25,high symptoms,30,59,simple actions,To Kick,0,0,14.10135846,0,,2,3,64
7b311b019110660156c3439da0dbf2ff,04-May-2016,21.53914391,m,25,high symptoms,30,60,complex actions,To Argue,180,1,7.71765498,1,0.99615941,3,3,64
7b311b019110660156c3439da0dbf2ff,04-May-2016,21.53914391,m,25,high symptoms,31,61,complex actions,To Stretch,135,1,12.27565716,1,1.56998592,3,3,64
7b311b019110660156c3439da0dbf2ff,04-May-2016,21.53914391,m,25,high symptoms,31,62,simple actions,To Kick,135,0,8.77416378,0,,3,2,64
7b311b019110660156c3439da0dbf2ff,04-May-2016,21.53914391,m,25,high symptoms,32,63,simple actions,To Grab,0,0,22.63100053,0,,4,1,64
7b311b019110660156c3439da0dbf2ff,04-May-2016,21.53914391,m,25,high symptoms,32,64,complex actions,To Dance,247,1,2.34082902,1,1.18008005,1,1,64
7b311b019110660156c3439da0dbf2ff,04-May-2016,21.53914391,m,25,high symptoms,33,65,complex actions,To Argue,247,1,7.60088477,1,1.94242763,1,1,64
7b311b019110660156c3439da0dbf2ff,04-May-2016,21.53914391,m,25,high symptoms,33,66,simple actions,To Kick,180,1,6.97729937,0,,1,1,64
7b311b019110660156c3439da0dbf2ff,04-May-2016,21.53914391,m,25,high symptoms,34,67,complex actions,To Stretch,0,1,11.06363551,1,1.42389328,1,1,64
7b311b019110660156c3439da0dbf2ff,04-May-2016,21.53914391,m,25,high symptoms,34,68,simple actions,To Push,135,1,4.69215817,0,,4,4,64
7b311b019110660156c3439da0dbf2ff,04-May-2016,21.53914391,m,25,high symptoms,35,69,complex actions,To Play an Instrument,0,1,13.70280029,1,2.3937095,3,3,64
7b311b019110660156c3439da0dbf2ff,04-May-2016,21.53914391,m,25,high symptoms,35,70,simple actions,To Wave,247,0,15.36059918,0,,1,3,64
7b311b019110660156c3439da0dbf2ff,04-May-2016,21.53914391,m,25,high symptoms,36,71,complex actions,To Play a Sport,135,1,3.44771405,1,2.18533167,4,4,64
7b311b019110660156c3439da0dbf2ff,04-May-2016,21.53914391,m,25,high symptoms,36,72,simple actions,To Jump,180,1,11.29394536,0,,4,4,64
2bcb10bd002fa4156fad3e0809b449c3,04-May-2016,20.78895636,m,29,high symptoms,1,1,simple actions,To Kick,180,0,15.95858092,0,,3,4,64
2bcb10bd002fa4156fad3e0809b449c3,04-May-2016,20.78895636,m,29,high symptoms,1,2,complex actions,To Fight,180,1,4.16858549,1,2.56405449,3,3,64
2bcb10bd002fa4156fad3e0809b449c3,04-May-2016,20.78895636,m,29,high symptoms,2,3,simple actions,To Jump,135,1,5.21733006,0,,3,3,64
2bcb10bd002fa4156fad3e0809b449c3,04-May-2016,20.78895636,m,29,high symptoms,2,4,complex actions,To Fight,0,1,10.28370448,1,2.87354627,4,4,64
2bcb10bd002fa4156fad3e0809b449c3,04-May-2016,20.78895636,m,29,high symptoms,3,5,complex actions,To Hurry up,135,1,7.84789659,1,1.49717169,3,3,64
2bcb10bd002fa4156fad3e0809b449c3,04-May-2016,20.78895636,m,29,high symptoms,3,6,simple actions,To Lift,135,1,10.57659567,0,,4,4,64
2bcb10bd002fa4156fad3e0809b449c3,04-May-2016,20.78895636,m,29,high symptoms,4,7,complex actions,To Clean,0,1,9.66932129,1,1.67852437,1,1,64
2bcb10bd002fa4156fad3e0809b449c3,04-May-2016,20.78895636,m,29,high symptoms,4,8,simple actions,To Wave,247,1,11.26182513,0,,3,3,64
2bcb10bd002fa4156fad3e0809b449c3,04-May-2016,20.78895636,m,29,high symptoms,5,9,simple actions,To Point,180,0,10.42066533,0,,3,4,64
2bcb10bd002fa4156fad3e0809b449c3,04-May-2016,20.78895636,m,29,high symptoms,5,10,complex actions,To Clean,247,1,10.8656116,1,3.13191983,3,3,64
2bcb10bd002fa4156fad3e0809b449c3,04-May-2016,20.78895636,m,29,high symptoms,6,11,simple actions,To Hammer,180,1,16.11450697,1,1.22133234,3,3,64
2bcb10bd002fa4156fad3e0809b449c3,04-May-2016,20.78895636,m,29,high symptoms,6,12,complex actions,To Argue,135,1,11.52779411,0,,2,2,64
2bcb10bd002fa4156fad3e0809b449c3,04-May-2016,20.78895636,m,29,high symptoms,7,13,simple actions,To Punch,135,1,5.93793756,1,1.75762279,3,3,64
2bcb10bd002fa4156fad3e0809b449c3,04-May-2016,20.78895636,m,29,high symptoms,7,14,complex actions,To Fight,247,1,17.2345819,0,,1,1,64
2bcb10bd002fa4156fad3e0809b449c3,04-May-2016,20.78895636,m,29,high symptoms,8,15,simple actions,To Punch,247,1,10.5196539,1,1.84232966,3,3,64
2bcb10bd002fa4156fad3e0809b449c3,04-May-2016,20.78895636,m,29,high symptoms,8,16,complex actions,To Stretch,247,1,10.83406841,0,,3,3,64
2bcb10bd002fa4156fad3e0809b449c3,04-May-2016,20.78895636,m,29,high symptoms,9,17,complex actions,To Get Attention,180,0,20.800646,0,,4,1,64
2bcb10bd002fa4156fad3e0809b449c3,04-May-2016,20.78895636,m,29,high symptoms,9,18,simple actions,To Jump,247,1,2.45602379,1,2.47248207,4,4,64
2bcb10bd002fa4156fad3e0809b449c3,04-May-2016,20.78895636,m,29,high symptoms,10,19,complex actions,To Stretch,135,1,7.28115243,1,1.26859823,1,1,64
2bcb10bd002fa4156fad3e0809b449c3,04-May-2016,20.78895636,m,29,high symptoms,10,20,simple actions,To Grab,247,1,8.76009023,0,,4,4,64
2bcb10bd002fa4156fad3e0809b449c3,04-May-2016,20.78895636,m,29,high symptoms,11,21,complex actions,To Hurry up,180,1,6.00562595,1,1.26228848,3,3,64
2bcb10bd002fa4156fad3e0809b449c3,04-May-2016,20.78895636,m,29,high symptoms,11,22,simple actions,To Wave,135,0,12.54640454,0,,2,3,64
2bcb10bd002fa4156fad3e0809b449c3,04-May-2016,20.78895636,m,29,high symptoms,12,23,simple actions,To Lift,0,1,3.4922255,1,1.46780037,3,3,64
2bcb10bd002fa4156fad3e0809b449c3,04-May-2016,20.78895636,m,29,high symptoms,12,24,complex actions,To Clean,180,1,4.60062458,0,,4,4,64
2bcb10bd002fa4156fad3e0809b449c3,04-May-2016,20.78895636,m,29,high symptoms,13,25,simple actions,To Push,0,1,9.74165283,1,1.50295588,4,4,64
2bcb10bd002fa4156fad3e0809b449c3,04-May-2016,20.78895636,m,29,high symptoms,13,26,complex actions,To Get Attention,135,0,9.86832464,0,,4,3,64
2bcb10bd002fa4156fad3e0809b449c3,04-May-2016,20.78895636,m,29,high symptoms,14,27,complex actions,To Play an Instrument,247,1,10.86580772,1,1.51198593,3,3,64
2bcb10bd002fa4156fad3e0809b449c3,04-May-2016,20.78895636,m,29,high symptoms,14,28,simple actions,To Jump,0,1,4.81728516,0,,1,1,64
2bcb10bd002fa4156fad3e0809b449c3,04-May-2016,20.78895636,m,29,high symptoms,15,29,complex actions,To Dance,0,1,4.85454237,1,1.29144269,3,3,64
2bcb10bd002fa4156fad3e0809b449c3,04-May-2016,20.78895636,m,29,high symptoms,15,30,simple actions,To Hammer,247,1,3.53804081,0,,1,1,64
2bcb10bd002fa4156fad3e0809b449c3,04-May-2016,20.78895636,m,29,high symptoms,16,31,simple actions,To Point,135,0,10.13647756,1,1.37683687,3,2,64
2bcb10bd002fa4156fad3e0809b449c3,04-May-2016,20.78895636,m,29,high symptoms,16,32,complex actions,To Play a Sport,135,1,17.21871891,0,,1,1,64
2bcb10bd002fa4156fad3e0809b449c3,04-May-2016,20.78895636,m,29,high symptoms,17,33,simple actions,To Grab,180,0,9.17642039,0,,1,4,64
2bcb10bd002fa4156fad3e0809b449c3,04-May-2016,20.78895636,m,29,high symptoms,17,34,complex actions,To Play a Sport,0,1,5.17264818,1,2.80330387,3,3,64
2bcb10bd002fa4156fad3e0809b449c3,04-May-2016,20.78895636,m,29,high symptoms,18,35,complex actions,To Fight,135,1,4.84199622,1,1.71120732,2,2,64
2bcb10bd002fa4156fad3e0809b449c3,04-May-2016,20.78895636,m,29,high symptoms,18,36,simple actions,To Kick,0,0,13.94372556,0,,4,3,64
2bcb10bd002fa4156fad3e0809b449c3,04-May-2016,20.78895636,m,29,high symptoms,19,37,complex actions,To Dance,247,1,3.41294914,1,2.93849454,2,2,64
2bcb10bd002fa4156fad3e0809b449c3,04-May-2016,20.78895636,m,29,high symptoms,19,38,simple actions,To Hammer,135,1,3.71948508,0,,1,1,64
2bcb10bd002fa4156fad3e0809b449c3,04-May-2016,20.78895636,m,29,high symptoms,20,39,simple actions,To Grab,0,1,7.27418113,1,1.73739848,3,3,64
2bcb10bd002fa4156fad3e0809b449c3,04-May-2016,20.78895636,m,29,high symptoms,20,40,complex actions,To Hurry up,0,1,7.45198826,0,,1,1,64
2bcb10bd002fa4156fad3e0809b449c3,04-May-2016,20.78895636,m,29,high symptoms,21,41,complex actions,To Clean,135,1,5.34499386,1,2.93834802,1,1,64
2bcb10bd002fa4156fad3e0809b449c3,04-May-2016,20.78895636,m,29,high symptoms,21,42,simple actions,To Lift,180,1,5.35882028,0,,3,3,64
2bcb10bd002fa4156fad3e0809b449c3,04-May-2016,20.78895636,m,29,high symptoms,22,43,complex actions,To Stretch,0,1,5.72008548,1,1.94812928,4,4,64
2bcb10bd002fa4156fad3e0809b449c3,04-May-2016,20.78895636,m,29,high symptoms,22,44,simple actions,To Push,135,1,15.74088774,0,,4,4,64
2bcb10bd002fa4156fad3e0809b449c3,04-May-2016,20.78895636,m,29,high symptoms,23,45,simple actions,To Jump,180,1,3.38112941,0,,1,1,64
2bcb10bd002fa4156fad3e0809b449c3,04-May-2016,20.78895636,m,29,high symptoms,23,46,complex actions,To Play an Instrument,135,1,5.99716139,1,1.23068032,3,3,64
2bcb10bd002fa4156fad3e0809b449c3,04-May-2016,20.78895636,m,29,high symptoms,24,47,simple actions,To Lift,247,1,3.36145641,0,,1,1,64
2bcb10bd002fa4156fad3e0809b449c3,04-May-2016,20.78895636,m,29,high symptoms,24,48,complex actions,To Dance,135,1,2.49180873,1,1.20984841,4,4,64
2bcb10bd002fa4156fad3e0809b449c3,04-May-2016,20.78895636,m,29,high symptoms,25,49,simple actions,To Point,0,0,10.93618895,0,,2,3,64
2bcb10bd002fa4156fad3e0809b449c3,04-May-2016,20.78895636,m,29,high symptoms,25,50,complex actions,To Get Attention,247,1,7.35416964,1,2.37591443,3,3,64
2bcb10bd002fa4156fad3e0809b449c3,04-May-2016,20.78895636,m,29,high symptoms,26,51,simple actions,To Kick,135,0,10.55111177,0,,4,2,64
2bcb10bd002fa4156fad3e0809b449c3,04-May-2016,20.78895636,m,29,high symptoms,26,52,complex actions,To Play an Instrument,180,1,5.581568,1,1.99742284,1,1,64
2bcb10bd002fa4156fad3e0809b449c3,04-May-2016,20.78895636,m,29,high symptoms,27,53,simple actions,To Hammer,0,1,6.47164428,1,0.94595838,2,2,64
2bcb10bd002fa4156fad3e0809b449c3,04-May-2016,20.78895636,m,29,high symptoms,27,54,complex actions,To Play a Sport,180,1,5.28962255,0,,2,2,64
2bcb10bd002fa4156fad3e0809b449c3,04-May-2016,20.78895636,m,29,high symptoms,28,55,simple actions,To Kick,247,1,14.57840045,0,,3,3,64
2bcb10bd002fa4156fad3e0809b449c3,04-May-2016,20.78895636,m,29,high symptoms,28,56,complex actions,To Argue,247,1,10.07454995,1,1.86850768,4,4,64
2bcb10bd002fa4156fad3e0809b449c3,04-May-2016,20.78895636,m,29,high symptoms,29,57,simple actions,To Punch,0,1,5.87990508,0,,1,1,64
2bcb10bd002fa4156fad3e0809b449c3,04-May-2016,20.78895636,m,29,high symptoms,29,58,complex actions,To Dance,180,1,1.62225619,1,1.04603212,1,1,64
2bcb10bd002fa4156fad3e0809b449c3,04-May-2016,20.78895636,m,29,high symptoms,30,59,simple actions,To Push,247,1,2.15395649,0,,3,3,64
2bcb10bd002fa4156fad3e0809b449c3,04-May-2016,20.78895636,m,29,high symptoms,30,60,complex actions,To Play an Instrument,0,1,4.92293564,1,2.4017843,4,4,64
2bcb10bd002fa4156fad3e0809b449c3,04-May-2016,20.78895636,m,29,high symptoms,31,61,simple actions,To Push,180,1,3.76203221,0,,2,2,64
2bcb10bd002fa4156fad3e0809b449c3,04-May-2016,20.78895636,m,29,high symptoms,31,62,complex actions,To Get Attention,0,1,7.21350474,1,3.72622492,2,2,64
2bcb10bd002fa4156fad3e0809b449c3,04-May-2016,20.78895636,m,29,high symptoms,32,63,complex actions,To Argue,180,1,9.10068574,1,1.13615541,4,4,64
2bcb10bd002fa4156fad3e0809b449c3,04-May-2016,20.78895636,m,29,high symptoms,32,64,simple actions,To Grab,135,0,5.54831179,0,,1,4,64
2bcb10bd002fa4156fad3e0809b449c3,04-May-2016,20.78895636,m,29,high symptoms,33,65,simple actions,To Wave,0,0,8.53389177,0,,1,2,64
2bcb10bd002fa4156fad3e0809b449c3,04-May-2016,20.78895636,m,29,high symptoms,33,66,complex actions,To Argue,0,1,7.36142308,1,1.14864814,2,2,64
2bcb10bd002fa4156fad3e0809b449c3,04-May-2016,20.78895636,m,29,high symptoms,34,67,simple actions,To Point,247,0,11.1012412,0,,4,3,64
2bcb10bd002fa4156fad3e0809b449c3,04-May-2016,20.78895636,m,29,high symptoms,34,68,complex actions,To Play a Sport,247,1,4.19622295,1,0.95781225,3,3,64
2bcb10bd002fa4156fad3e0809b449c3,04-May-2016,20.78895636,m,29,high symptoms,35,69,simple actions,To Punch,180,1,5.95604544,0,,4,4,64
2bcb10bd002fa4156fad3e0809b449c3,04-May-2016,20.78895636,m,29,high symptoms,35,70,complex actions,To Stretch,180,1,4.00058022,1,1.00173531,3,3,64
2bcb10bd002fa4156fad3e0809b449c3,04-May-2016,20.78895636,m,29,high symptoms,36,71,complex actions,To Hurry up,247,1,6.19982449,1,1.25042388,1,1,64
2bcb10bd002fa4156fad3e0809b449c3,04-May-2016,20.78895636,m,29,high symptoms,36,72,simple actions,To Wave,180,0,10.78141185,0,,1,3,64
9998d54e351cc704e85679608dd2e95d,04-Oct-2016,21.72805975,m,13,low symptoms,1,1,complex actions,To Dance,0,1,17.62238572,1,3.68577738,3,3,125
9998d54e351cc704e85679608dd2e95d,04-Oct-2016,21.72805975,m,13,low symptoms,1,2,simple actions,To Grab,247,1,19.69564253,0,,4,4,125
9998d54e351cc704e85679608dd2e95d,04-Oct-2016,21.72805975,m,13,low symptoms,2,3,simple actions,To Wave,135,1,32.22209825,0,,2,2,125
9998d54e351cc704e85679608dd2e95d,04-Oct-2016,21.72805975,m,13,low symptoms,2,4,complex actions,To Dance,247,1,17.5488139,1,1.9358503,3,3,125
9998d54e351cc704e85679608dd2e95d,04-Oct-2016,21.72805975,m,13,low symptoms,3,5,complex actions,To Get Attention,180,1,30.55646299,0,,3,3,125
9998d54e351cc704e85679608dd2e95d,04-Oct-2016,21.72805975,m,13,low symptoms,3,6,simple actions,To Push,135,0,25.50212433,1,1.73686475,1,4,125
9998d54e351cc704e85679608dd2e95d,04-Oct-2016,21.72805975,m,13,low symptoms,4,7,complex actions,To Stretch,135,1,15.09648435,0,,2,2,125
9998d54e351cc704e85679608dd2e95d,04-Oct-2016,21.72805975,m,13,low symptoms,4,8,simple actions,To Kick,135,1,20.99622429,1,1.74910788,1,1,125
9998d54e351cc704e85679608dd2e95d,04-Oct-2016,21.72805975,m,13,low symptoms,5,9,simple actions,To Punch,0,1,33.3949961,1,1.72344474,4,4,125
9998d54e351cc704e85679608dd2e95d,04-Oct-2016,21.72805975,m,13,low symptoms,5,10,complex actions,To Clean,247,1,4.93633733,0,,3,3,125
9998d54e351cc704e85679608dd2e95d,04-Oct-2016,21.72805975,m,13,low symptoms,6,11,simple actions,To Punch,180,1,8.29087014,1,1.64424411,1,1,125
9998d54e351cc704e85679608dd2e95d,04-Oct-2016,21.72805975,m,13,low symptoms,6,12,complex actions,To Clean,0,1,7.99674344,0,,2,2,125
9998d54e351cc704e85679608dd2e95d,04-Oct-2016,21.72805975,m,13,low symptoms,7,13,simple actions,To Point,247,1,13.39376114,1,1.48506632,3,3,125
9998d54e351cc704e85679608dd2e95d,04-Oct-2016,21.72805975,m,13,low symptoms,7,14,complex actions,To Hurry up,247,1,11.76151203,0,,2,2,125
9998d54e351cc704e85679608dd2e95d,04-Oct-2016,21.72805975,m,13,low symptoms,8,15,complex actions,To Clean,180,1,9.58802683,0,,2,2,125
9998d54e351cc704e85679608dd2e95d,04-Oct-2016,21.72805975,m,13,low symptoms,8,16,simple actions,To Hammer,0,1,8.93152332,1,1.60798944,3,3,125
9998d54e351cc704e85679608dd2e95d,04-Oct-2016,21.72805975,m,13,low symptoms,9,17,complex actions,To Argue,180,0,24.06949562,1,1.69816657,3,4,125
9998d54e351cc704e85679608dd2e95d,04-Oct-2016,21.72805975,m,13,low symptoms,9,18,simple actions,To Wave,180,1,10.58574829,0,,1,1,125
9998d54e351cc704e85679608dd2e95d,04-Oct-2016,21.72805975,m,13,low symptoms,10,19,complex actions,To Fight,247,1,17.7482482,0,,2,2,125
9998d54e351cc704e85679608dd2e95d,04-Oct-2016,21.72805975,m,13,low symptoms,10,20,simple actions,To Lift,135,1,20.220576,1,1.42812487,3,3,125
9998d54e351cc704e85679608dd2e95d,04-Oct-2016,21.72805975,m,13,low symptoms,11,21,simple actions,To Kick,0,1,12.72877482,0,,1,1,125
9998d54e351cc704e85679608dd2e95d,04-Oct-2016,21.72805975,m,13,low symptoms,11,22,complex actions,To Play an Instrument,0,1,13.38583048,1,1.06828926,4,4,125
9998d54e351cc704e85679608dd2e95d,04-Oct-2016,21.72805975,m,13,low symptoms,12,23,simple actions,To Point,180,1,11.83881776,1,1.79644462,2,2,125
9998d54e351cc704e85679608dd2e95d,04-Oct-2016,21.72805975,m,13,low symptoms,12,24,complex actions,To Play a Sport,180,0,28.81193243,0,,4,2,125
9998d54e351cc704e85679608dd2e95d,04-Oct-2016,21.72805975,m,13,low symptoms,13,25,simple actions,To Jump,135,1,5.77747895,1,1.49060186,1,1,125
9998d54e351cc704e85679608dd2e95d,04-Oct-2016,21.72805975,m,13,low symptoms,13,26,complex actions,To Stretch,0,1,18.73619866,0,,2,2,125
9998d54e351cc704e85679608dd2e95d,04-Oct-2016,21.72805975,m,13,low symptoms,14,27,complex actions,To Stretch,180,1,7.65947014,0,,1,1,125
9998d54e351cc704e85679608dd2e95d,04-Oct-2016,21.72805975,m,13,low symptoms,14,28,simple actions,To Lift,247,1,17.17549932,1,1.50576014,1,1,125
9998d54e351cc704e85679608dd2e95d,04-Oct-2016,21.72805975,m,13,low symptoms,15,29,simple actions,To Hammer,180,1,12.95364876,1,1.47268988,1,1,125
9998d54e351cc704e85679608dd2e95d,04-Oct-2016,21.72805975,m,13,low symptoms,15,30,complex actions,To Hurry up,0,1,14.06669397,0,,3,3,125
9998d54e351cc704e85679608dd2e95d,04-Oct-2016,21.72805975,m,13,low symptoms,16,31,complex actions,To Stretch,247,1,10.02571021,0,,1,1,125
9998d54e351cc704e85679608dd2e95d,04-Oct-2016,21.72805975,m,13,low symptoms,16,32,simple actions,To Grab,135,1,13.00090587,1,1.9440775,2,2,125
9998d54e351cc704e85679608dd2e95d,04-Oct-2016,21.72805975,m,13,low symptoms,17,33,simple actions,To Point,0,1,15.83402179,0,,4,4,125
9998d54e351cc704e85679608dd2e95d,04-Oct-2016,21.72805975,m,13,low symptoms,17,34,complex actions,To Play a Sport,135,0,9.93502714,1,1.39461246,3,4,125
9998d54e351cc704e85679608dd2e95d,04-Oct-2016,21.72805975,m,13,low symptoms,18,35,complex actions,To Dance,135,1,11.82608937,1,1.68550856,3,3,125
9998d54e351cc704e85679608dd2e95d,04-Oct-2016,21.72805975,m,13,low symptoms,18,36,simple actions,To Jump,0,1,5.68043938,0,,2,2,125
9998d54e351cc704e85679608dd2e95d,04-Oct-2016,21.72805975,m,13,low symptoms,19,37,simple actions,To Hammer,135,1,3.14455098,1,1.47567059,2,2,125
9998d54e351cc704e85679608dd2e95d,04-Oct-2016,21.72805975,m,13,low symptoms,19,38,complex actions,To Clean,135,1,15.89635315,0,,1,1,125
9998d54e351cc704e85679608dd2e95d,04-Oct-2016,21.72805975,m,13,low symptoms,20,39,simple actions,To Kick,247,1,14.31993679,1,1.46098527,2,2,125
9998d54e351cc704e85679608dd2e95d,04-Oct-2016,21.72805975,m,13,low symptoms,20,40,complex actions,To Argue,247,0,11.92297363,0,,4,3,125
9998d54e351cc704e85679608dd2e95d,04-Oct-2016,21.72805975,m,13,low symptoms,21,41,simple actions,To Wave,0,1,7.21802601,1,1.349351,3,3,125
9998d54e351cc704e85679608dd2e95d,04-Oct-2016,21.72805975,m,13,low symptoms,21,42,complex actions,To Hurry up,135,1,6.66468759,0,,3,3,125
9998d54e351cc704e85679608dd2e95d,04-Oct-2016,21.72805975,m,13,low symptoms,22,43,simple actions,To Wave,247,1,6.1422852,1,1.24456202,1,1,125
9998d54e351cc704e85679608dd2e95d,04-Oct-2016,21.72805975,m,13,low symptoms,22,44,complex actions,To Hurry up,180,1,3.68826181,0,,1,1,125
9998d54e351cc704e85679608dd2e95d,04-Oct-2016,21.72805975,m,13,low symptoms,23,45,complex actions,To Fight,180,1,13.77610408,0,,4,4,125
9998d54e351cc704e85679608dd2e95d,04-Oct-2016,21.72805975,m,13,low symptoms,23,46,simple actions,To Hammer,247,1,2.09591328,1,1.54738932,4,4,125
9998d54e351cc704e85679608dd2e95d,04-Oct-2016,21.72805975,m,13,low symptoms,24,47,simple actions,To Push,180,1,12.39643168,0,,1,1,125
9998d54e351cc704e85679608dd2e95d,04-Oct-2016,21.72805975,m,13,low symptoms,24,48,complex actions,To Fight,135,1,8.14686515,1,1.80577083,1,1,125
9998d54e351cc704e85679608dd2e95d,04-Oct-2016,21.72805975,m,13,low symptoms,25,49,simple actions,To Push,0,1,6.33923066,1,1.42215465,3,3,125
9998d54e351cc704e85679608dd2e95d,04-Oct-2016,21.72805975,m,13,low symptoms,25,50,complex actions,To Argue,135,0,25.62171039,0,,4,1,125
9998d54e351cc704e85679608dd2e95d,04-Oct-2016,21.72805975,m,13,low symptoms,26,51,simple actions,To Punch,135,0,0,1,3.09615438,1,0,125
9998d54e351cc704e85679608dd2e95d,04-Oct-2016,21.72805975,m,13,low symptoms,26,52,complex actions,To Play an Instrument,135,1,19.98185925,0,,3,3,125
9998d54e351cc704e85679608dd2e95d,04-Oct-2016,21.72805975,m,13,low symptoms,27,53,simple actions,To Kick,180,1,8.54541831,1,1.05587851,3,3,125
9998d54e351cc704e85679608dd2e95d,04-Oct-2016,21.72805975,m,13,low symptoms,27,54,complex actions,To Get Attention,247,1,6.8665421,0,,1,1,125
9998d54e351cc704e85679608dd2e95d,04-Oct-2016,21.72805975,m,13,low symptoms,28,55,simple actions,To Grab,0,1,12.60510817,0,,4,4,125
9998d54e351cc704e85679608dd2e95d,04-Oct-2016,21.72805975,m,13,low symptoms,28,56,complex actions,To Play an Instrument,180,1,6.15476326,1,1.40346968,2,2,125
9998d54e351cc704e85679608dd2e95d,04-Oct-2016,21.72805975,m,13,low symptoms,29,57,simple actions,To Punch,247,1,13.83325891,0,,1,1,125
9998d54e351cc704e85679608dd2e95d,04-Oct-2016,21.72805975,m,13,low symptoms,29,58,complex actions,To Play a Sport,247,0,31.83840025,1,2.83519076,4,3,125
9998d54e351cc704e85679608dd2e95d,04-Oct-2016,21.72805975,m,13,low symptoms,30,59,complex actions,To Get Attention,0,1,9.03236852,1,1.18821716,2,2,125
9998d54e351cc704e85679608dd2e95d,04-Oct-2016,21.72805975,m,13,low symptoms,30,60,simple actions,To Point,135,1,5.28698048,0,,1,1,125
9998d54e351cc704e85679608dd2e95d,04-Oct-2016,21.72805975,m,13,low symptoms,31,61,simple actions,To Jump,247,1,4.93011238,1,1.6225573,3,3,125
9998d54e351cc704e85679608dd2e95d,04-Oct-2016,21.72805975,m,13,low symptoms,31,62,complex actions,To Play an Instrument,247,1,6.09922836,0,,3,3,125
9998d54e351cc704e85679608dd2e95d,04-Oct-2016,21.72805975,m,13,low symptoms,32,63,simple actions,To Lift,180,1,10.28392806,1,1.34734567,4,4,125
9998d54e351cc704e85679608dd2e95d,04-Oct-2016,21.72805975,m,13,low symptoms,32,64,complex actions,To Fight,0,1,23.11097301,0,,4,4,125
9998d54e351cc704e85679608dd2e95d,04-Oct-2016,21.72805975,m,13,low symptoms,33,65,complex actions,To Play a Sport,0,1,8.68176937,0,,3,3,125
9998d54e351cc704e85679608dd2e95d,04-Oct-2016,21.72805975,m,13,low symptoms,33,66,simple actions,To Lift,0,1,4.44498579,1,1.19645755,4,4,125
9998d54e351cc704e85679608dd2e95d,04-Oct-2016,21.72805975,m,13,low symptoms,34,67,simple actions,To Push,247,1,5.02540136,1,1.34038687,4,4,125
9998d54e351cc704e85679608dd2e95d,04-Oct-2016,21.72805975,m,13,low symptoms,34,68,complex actions,To Argue,0,0,7.11261757,0,,1,3,125
9998d54e351cc704e85679608dd2e95d,04-Oct-2016,21.72805975,m,13,low symptoms,35,69,simple actions,To Grab,180,1,10.81380401,1,1.85770028,3,3,125
9998d54e351cc704e85679608dd2e95d,04-Oct-2016,21.72805975,m,13,low symptoms,35,70,complex actions,To Get Attention,135,1,8.85957802,0,,4,4,125
9998d54e351cc704e85679608dd2e95d,04-Oct-2016,21.72805975,m,13,low symptoms,36,71,simple actions,To Jump,180,1,4.77335215,0,,3,3,125
9998d54e351cc704e85679608dd2e95d,04-Oct-2016,21.72805975,m,13,low symptoms,36,72,complex actions,To Dance,180,1,11.71185407,1,1.30820401,2,2,125
ab65e54da1af839a4009651b244239b9,05-Feb-2016,20.88204533,f,9,low symptoms,1,1,complex actions,To Get Attention,247,0,7.95745517,1,3.31049865,3,4,84
ab65e54da1af839a4009651b244239b9,05-Feb-2016,20.88204533,f,9,low symptoms,1,2,simple actions,To Point,135,0,7.76449085,0,,3,2,84
ab65e54da1af839a4009651b244239b9,05-Feb-2016,20.88204533,f,9,low symptoms,2,3,complex actions,To Fight,135,0,10.80925557,0,,4,2,84
ab65e54da1af839a4009651b244239b9,05-Feb-2016,20.88204533,f,9,low symptoms,2,4,simple actions,To Jump,0,1,8.06832909,1,2.0739864,3,3,84
ab65e54da1af839a4009651b244239b9,05-Feb-2016,20.88204533,f,9,low symptoms,3,5,complex actions,To Play a Sport,0,0,7.14469239,1,1.8544114,4,2,84
ab65e54da1af839a4009651b244239b9,05-Feb-2016,20.88204533,f,9,low symptoms,3,6,simple actions,To Lift,247,0,20.27229373,0,,4,2,84
ab65e54da1af839a4009651b244239b9,05-Feb-2016,20.88204533,f,9,low symptoms,4,7,simple actions,To Lift,180,1,4.70070678,0,,3,3,84
ab65e54da1af839a4009651b244239b9,05-Feb-2016,20.88204533,f,9,low symptoms,4,8,complex actions,To Get Attention,180,1,7.28580408,1,2.35815619,4,4,84
ab65e54da1af839a4009651b244239b9,05-Feb-2016,20.88204533,f,9,low symptoms,5,9,complex actions,To Clean,180,1,19.70142171,0,,1,1,84
ab65e54da1af839a4009651b244239b9,05-Feb-2016,20.88204533,f,9,low symptoms,5,10,simple actions,To Grab,180,0,10.1823026,1,1.1629933,3,4,84
ab65e54da1af839a4009651b244239b9,05-Feb-2016,20.88204533,f,9,low symptoms,6,11,complex actions,To Stretch,0,1,17.20755123,1,1.26250519,1,1,84
ab65e54da1af839a4009651b244239b9,05-Feb-2016,20.88204533,f,9,low symptoms,6,12,simple actions,To Point,247,0,10.334018,0,,4,1,84
ab65e54da1af839a4009651b244239b9,05-Feb-2016,20.88204533,f,9,low symptoms,7,13,simple actions,To Wave,247,1,9.30704817,0,,4,4,84
ab65e54da1af839a4009651b244239b9,05-Feb-2016,20.88204533,f,9,low symptoms,7,14,complex actions,To Play a Sport,180,1,3.82664261,1,1.25338232,3,3,84
ab65e54da1af839a4009651b244239b9,05-Feb-2016,20.88204533,f,9,low symptoms,8,15,complex actions,To Clean,0,1,12.85963628,0,,1,1,84
ab65e54da1af839a4009651b244239b9,05-Feb-2016,20.88204533,f,9,low symptoms,8,16,simple actions,To Punch,0,0,18.88430653,1,1.56469642,2,4,84
ab65e54da1af839a4009651b244239b9,05-Feb-2016,20.88204533,f,9,low symptoms,9,17,complex actions,To Play an Instrument,135,1,16.64678785,0,,1,1,84
ab65e54da1af839a4009651b244239b9,05-Feb-2016,20.88204533,f,9,low symptoms,9,18,simple actions,To Kick,135,1,6.12312235,1,1.45576453,2,2,84
ab65e54da1af839a4009651b244239b9,05-Feb-2016,20.88204533,f,9,low symptoms,10,19,complex actions,To Get Attention,0,1,6.86614378,0,,2,2,84
ab65e54da1af839a4009651b244239b9,05-Feb-2016,20.88204533,f,9,low symptoms,10,20,simple actions,To Punch,180,0,11.92524268,1,1.57347366,2,4,84
ab65e54da1af839a4009651b244239b9,05-Feb-2016,20.88204533,f,9,low symptoms,11,21,simple actions,To Grab,247,0,10.0445789,0,,2,3,84
ab65e54da1af839a4009651b244239b9,05-Feb-2016,20.88204533,f,9,low symptoms,11,22,complex actions,To Stretch,135,1,5.35341202,1,1.2248677,3,3,84
ab65e54da1af839a4009651b244239b9,05-Feb-2016,20.88204533,f,9,low symptoms,12,23,simple actions,To Push,247,0,11.27227006,0,,3,4,84
ab65e54da1af839a4009651b244239b9,05-Feb-2016,20.88204533,f,9,low symptoms,12,24,complex actions,To Dance,180,1,12.84678884,1,2.87998414,2,2,84
ab65e54da1af839a4009651b244239b9,05-Feb-2016,20.88204533,f,9,low symptoms,13,25,simple actions,To Grab,0,0,8.60957659,0,,4,2,84
ab65e54da1af839a4009651b244239b9,05-Feb-2016,20.88204533,f,9,low symptoms,13,26,complex actions,To Play a Sport,247,1,7.02258108,1,1.29732332,3,3,84
ab65e54da1af839a4009651b244239b9,05-Feb-2016,20.88204533,f,9,low symptoms,14,27,simple actions,To Jump,135,1,8.00705362,1,2.28841941,3,3,84
ab65e54da1af839a4009651b244239b9,05-Feb-2016,20.88204533,f,9,low symptoms,14,28,complex actions,To Argue,247,1,13.1475749,0,,3,3,84
ab65e54da1af839a4009651b244239b9,05-Feb-2016,20.88204533,f,9,low symptoms,15,29,simple actions,To Grab,135,0,3.0724499,1,2.28499212,2,3,84
ab65e54da1af839a4009651b244239b9,05-Feb-2016,20.88204533,f,9,low symptoms,15,30,complex actions,To Argue,180,0,13.55853527,0,,3,4,84
ab65e54da1af839a4009651b244239b9,05-Feb-2016,20.88204533,f,9,low symptoms,16,31,simple actions,To Jump,247,1,6.61945851,0,,1,1,84
ab65e54da1af839a4009651b244239b9,05-Feb-2016,20.88204533,f,9,low symptoms,16,32,complex actions,To Clean,135,1,6.2305721,1,1.62909492,4,4,84
ab65e54da1af839a4009651b244239b9,05-Feb-2016,20.88204533,f,9,low symptoms,17,33,complex actions,To Play an Instrument,247,0,5.21277411,0,,4,1,84
ab65e54da1af839a4009651b244239b9,05-Feb-2016,20.88204533,f,9,low symptoms,17,34,simple actions,To Punch,135,0,18.00971611,1,1.31480998,1,2,84
ab65e54da1af839a4009651b244239b9,05-Feb-2016,20.88204533,f,9,low symptoms,18,35,simple actions,To Hammer,180,0,9.59463776,0,,1,4,84
ab65e54da1af839a4009651b244239b9,05-Feb-2016,20.88204533,f,9,low symptoms,18,36,complex actions,To Clean,247,1,5.42128585,1,1.07242682,4,4,84
ab65e54da1af839a4009651b244239b9,05-Feb-2016,20.88204533,f,9,low symptoms,19,37,simple actions,To Point,0,0,8.86849271,1,3.07613922,4,1,84
ab65e54da1af839a4009651b244239b9,05-Feb-2016,20.88204533,f,9,low symptoms,19,38,complex actions,To Argue,135,0,18.54755982,0,,1,3,84
ab65e54da1af839a4009651b244239b9,05-Feb-2016,20.88204533,f,9,low symptoms,20,39,simple actions,To Kick,247,1,8.36992087,1,1.26571307,3,3,84
ab65e54da1af839a4009651b244239b9,05-Feb-2016,20.88204533,f,9,low symptoms,20,40,complex actions,To Fight,0,0,13.0190585,0,,4,1,84
ab65e54da1af839a4009651b244239b9,05-Feb-2016,20.88204533,f,9,low symptoms,21,41,complex actions,To Fight,247,0,6.35516564,0,,4,3,84
ab65e54da1af839a4009651b244239b9,05-Feb-2016,20.88204533,f,9,low symptoms,21,42,simple actions,To Hammer,247,0,8.32853388,1,2.40798251,3,4,84
ab65e54da1af839a4009651b244239b9,05-Feb-2016,20.88204533,f,9,low symptoms,22,43,simple actions,To Point,180,0,5.17207703,0,,2,3,84
ab65e54da1af839a4009651b244239b9,05-Feb-2016,20.88204533,f,9,low symptoms,22,44,complex actions,To Play a Sport,135,0,6.0942878,1,1.22431619,1,3,84
ab65e54da1af839a4009651b244239b9,05-Feb-2016,20.88204533,f,9,low symptoms,23,45,complex actions,To Dance,0,1,4.99533931,0,,4,4,84
ab65e54da1af839a4009651b244239b9,05-Feb-2016,20.88204533,f,9,low symptoms,23,46,simple actions,To Push,0,1,9.4379981,1,1.22716847,3,3,84
ab65e54da1af839a4009651b244239b9,05-Feb-2016,20.88204533,f,9,low symptoms,24,47,simple actions,To Punch,247,0,7.53591324,0,,4,1,84
ab65e54da1af839a4009651b244239b9,05-Feb-2016,20.88204533,f,9,low symptoms,24,48,complex actions,To Hurry up,180,1,17.88505878,1,1.20695928,4,4,84
ab65e54da1af839a4009651b244239b9,05-Feb-2016,20.88204533,f,9,low symptoms,25,49,simple actions,To Push,180,1,4.30025351,1,1.28562452,3,3,84
ab65e54da1af839a4009651b244239b9,05-Feb-2016,20.88204533,f,9,low symptoms,25,50,complex actions,To Argue,0,0,8.45914583,0,,2,3,84
ab65e54da1af839a4009651b244239b9,05-Feb-2016,20.88204533,f,9,low symptoms,26,51,simple actions,To Jump,180,1,6.24301658,0,,2,2,84
ab65e54da1af839a4009651b244239b9,05-Feb-2016,20.88204533,f,9,low symptoms,26,52,complex actions,To Stretch,180,1,3.47364481,1,2.08604741,1,1,84
ab65e54da1af839a4009651b244239b9,05-Feb-2016,20.88204533,f,9,low symptoms,27,53,complex actions,To Hurry up,247,1,13.90229483,1,1.18940777,3,3,84
ab65e54da1af839a4009651b244239b9,05-Feb-2016,20.88204533,f,9,low symptoms,27,54,simple actions,To Hammer,135,1,3.97964872,0,,1,1,84
ab65e54da1af839a4009651b244239b9,05-Feb-2016,20.88204533,f,9,low symptoms,28,55,simple actions,To Kick,0,1,5.96718372,1,1.16628976,4,4,84
ab65e54da1af839a4009651b244239b9,05-Feb-2016,20.88204533,f,9,low symptoms,28,56,complex actions,To Dance,247,1,6.84531782,0,,1,1,84
ab65e54da1af839a4009651b244239b9,05-Feb-2016,20.88204533,f,9,low symptoms,29,57,complex actions,To Dance,135,1,4.25043244,0,,1,1,84
ab65e54da1af839a4009651b244239b9,05-Feb-2016,20.88204533,f,9,low symptoms,29,58,simple actions,To Lift,0,1,9.49026225,1,1.25039245,3,3,84
ab65e54da1af839a4009651b244239b9,05-Feb-2016,20.88204533,f,9,low symptoms,30,59,simple actions,To Wave,180,1,12.48218231,0,,2,2,84
ab65e54da1af839a4009651b244239b9,05-Feb-2016,20.88204533,f,9,low symptoms,30,60,complex actions,To Hurry up,0,1,3.53733768,1,0.99636853,4,4,84
ab65e54da1af839a4009651b244239b9,05-Feb-2016,20.88204533,f,9,low symptoms,31,61,simple actions,To Wave,135,1,4.31128641,1,2.03923096,2,2,84
ab65e54da1af839a4009651b244239b9,05-Feb-2016,20.88204533,f,9,low symptoms,31,62,complex actions,To Get Attention,135,1,12.19821482,0,,3,3,84
ab65e54da1af839a4009651b244239b9,05-Feb-2016,20.88204533,f,9,low symptoms,32,63,complex actions,To Play an Instrument,0,1,7.88172714,0,,4,4,84
ab65e54da1af839a4009651b244239b9,05-Feb-2016,20.88204533,f,9,low symptoms,32,64,simple actions,To Kick,180,1,5.65623199,1,1.24463047,4,4,84
ab65e54da1af839a4009651b244239b9,05-Feb-2016,20.88204533,f,9,low symptoms,33,65,simple actions,To Push,135,1,6.71367963,1,1.72802059,1,1,84
ab65e54da1af839a4009651b244239b9,05-Feb-2016,20.88204533,f,9,low symptoms,33,66,complex actions,To Hurry up,135,1,6.61277288,0,,1,1,84
ab65e54da1af839a4009651b244239b9,05-Feb-2016,20.88204533,f,9,low symptoms,34,67,simple actions,To Lift,135,1,2.55209411,0,,2,2,84
ab65e54da1af839a4009651b244239b9,05-Feb-2016,20.88204533,f,9,low symptoms,34,68,complex actions,To Play an Instrument,180,1,6.64712686,1,1.07164291,3,3,84
ab65e54da1af839a4009651b244239b9,05-Feb-2016,20.88204533,f,9,low symptoms,35,69,complex actions,To Stretch,247,1,8.54068476,1,1.06088244,2,2,84
ab65e54da1af839a4009651b244239b9,05-Feb-2016,20.88204533,f,9,low symptoms,35,70,simple actions,To Hammer,0,0,12.10189505,0,,1,3,84
ab65e54da1af839a4009651b244239b9,05-Feb-2016,20.88204533,f,9,low symptoms,36,71,complex actions,To Fight,180,0,18.74761487,0,,3,4,84
ab65e54da1af839a4009651b244239b9,05-Feb-2016,20.88204533,f,9,low symptoms,36,72,simple actions,To Wave,0,1,6.57046372,1,1.32701344,2,2,84
8ef7d23e669a7eb77648cca862d99858,07-Apr-2016,19.5514207,f,13,low symptoms,1,1,simple actions,To Jump,0,0,14.14780425,0,,4,3,85
8ef7d23e669a7eb77648cca862d99858,07-Apr-2016,19.5514207,f,13,low symptoms,1,2,complex actions,To Argue,135,1,8.77277007,1,3.73803844,3,3,85
8ef7d23e669a7eb77648cca862d99858,07-Apr-2016,19.5514207,f,13,low symptoms,2,3,complex actions,To Stretch,247,0,18.57316657,0,,1,3,85
8ef7d23e669a7eb77648cca862d99858,07-Apr-2016,19.5514207,f,13,low symptoms,2,4,simple actions,To Point,247,1,17.56398513,1,4.54094947,1,1,85
8ef7d23e669a7eb77648cca862d99858,07-Apr-2016,19.5514207,f,13,low symptoms,3,5,simple actions,To Point,0,0,19.6114382,0,,3,4,85
8ef7d23e669a7eb77648cca862d99858,07-Apr-2016,19.5514207,f,13,low symptoms,3,6,complex actions,To Hurry up,180,1,13.05365087,1,1.67598889,1,1,85
8ef7d23e669a7eb77648cca862d99858,07-Apr-2016,19.5514207,f,13,low symptoms,4,7,complex actions,To Play a Sport,135,1,5.5054996,1,2.09721723,2,2,85
8ef7d23e669a7eb77648cca862d99858,07-Apr-2016,19.5514207,f,13,low symptoms,4,8,simple actions,To Push,135,1,9.52565354,0,,2,2,85
8ef7d23e669a7eb77648cca862d99858,07-Apr-2016,19.5514207,f,13,low symptoms,5,9,simple actions,To Wave,247,0,16.18071607,0,,1,2,85
8ef7d23e669a7eb77648cca862d99858,07-Apr-2016,19.5514207,f,13,low symptoms,5,10,complex actions,To Play a Sport,0,0,6.46331092,1,1.0109971,3,4,85
8ef7d23e669a7eb77648cca862d99858,07-Apr-2016,19.5514207,f,13,low symptoms,6,11,complex actions,To Dance,0,1,8.16618773,1,0.8821429,2,2,85
8ef7d23e669a7eb77648cca862d99858,07-Apr-2016,19.5514207,f,13,low symptoms,6,12,simple actions,To Kick,0,1,8.69094115,0,,2,2,85
8ef7d23e669a7eb77648cca862d99858,07-Apr-2016,19.5514207,f,13,low symptoms,7,13,simple actions,To Push,180,1,8.21441141,1,3.46868565,2,2,85
8ef7d23e669a7eb77648cca862d99858,07-Apr-2016,19.5514207,f,13,low symptoms,7,14,complex actions,To Argue,247,1,24.19409845,0,,2,2,85
8ef7d23e669a7eb77648cca862d99858,07-Apr-2016,19.5514207,f,13,low symptoms,8,15,complex actions,To Get Attention,247,1,7.88098304,1,1.16258613,3,3,85
8ef7d23e669a7eb77648cca862d99858,07-Apr-2016,19.5514207,f,13,low symptoms,8,16,simple actions,To Kick,135,1,19.29731309,0,,3,3,85
8ef7d23e669a7eb77648cca862d99858,07-Apr-2016,19.5514207,f,13,low symptoms,9,17,simple actions,To Hammer,247,0,11.29567319,0,,4,2,85
8ef7d23e669a7eb77648cca862d99858,07-Apr-2016,19.5514207,f,13,low symptoms,9,18,complex actions,To Get Attention,135,0,15.0996449,1,1.44115819,3,4,85
8ef7d23e669a7eb77648cca862d99858,07-Apr-2016,19.5514207,f,13,low symptoms,10,19,simple actions,To Lift,135,1,9.95599173,0,,3,3,85
8ef7d23e669a7eb77648cca862d99858,07-Apr-2016,19.5514207,f,13,low symptoms,10,20,complex actions,To Fight,180,1,8.07427195,1,0.95496034,3,3,85
8ef7d23e669a7eb77648cca862d99858,07-Apr-2016,19.5514207,f,13,low symptoms,11,21,complex actions,To Stretch,0,1,16.86095591,0,,2,2,85
8ef7d23e669a7eb77648cca862d99858,07-Apr-2016,19.5514207,f,13,low symptoms,11,22,simple actions,To Push,247,1,13.63897574,1,0.88154639,3,3,85
8ef7d23e669a7eb77648cca862d99858,07-Apr-2016,19.5514207,f,13,low symptoms,12,23,complex actions,To Stretch,180,0,27.28165652,0,,4,2,85
8ef7d23e669a7eb77648cca862d99858,07-Apr-2016,19.5514207,f,13,low symptoms,12,24,simple actions,To Jump,180,0,12.38855585,1,1.52355707,2,1,85
8ef7d23e669a7eb77648cca862d99858,07-Apr-2016,19.5514207,f,13,low symptoms,13,25,simple actions,To Jump,247,0,12.195386,0,,3,1,85
8ef7d23e669a7eb77648cca862d99858,07-Apr-2016,19.5514207,f,13,low symptoms,13,26,complex actions,To Hurry up,135,1,9.22060509,1,1.4032098,1,1,85
8ef7d23e669a7eb77648cca862d99858,07-Apr-2016,19.5514207,f,13,low symptoms,14,27,complex actions,To Fight,247,1,10.88467036,1,2.10582992,2,2,85
8ef7d23e669a7eb77648cca862d99858,07-Apr-2016,19.5514207,f,13,low symptoms,14,28,simple actions,To Wave,180,0,7.79178332,0,,2,4,85
8ef7d23e669a7eb77648cca862d99858,07-Apr-2016,19.5514207,f,13,low symptoms,15,29,complex actions,To Clean,180,1,11.83257411,1,0.84968403,3,3,85
8ef7d23e669a7eb77648cca862d99858,07-Apr-2016,19.5514207,f,13,low symptoms,15,30,simple actions,To Hammer,180,0,30.15117313,0,,1,2,85
8ef7d23e669a7eb77648cca862d99858,07-Apr-2016,19.5514207,f,13,low symptoms,16,31,complex actions,To Fight,135,1,11.10522498,1,1.79871882,2,2,85
8ef7d23e669a7eb77648cca862d99858,07-Apr-2016,19.5514207,f,13,low symptoms,16,32,simple actions,To Grab,135,0,18.86059407,0,,2,3,85
8ef7d23e669a7eb77648cca862d99858,07-Apr-2016,19.5514207,f,13,low symptoms,17,33,simple actions,To Lift,247,0,8.75950129,0,,3,4,85
8ef7d23e669a7eb77648cca862d99858,07-Apr-2016,19.5514207,f,13,low symptoms,17,34,complex actions,To Get Attention,180,1,6.48110359,1,1.41479211,1,1,85
8ef7d23e669a7eb77648cca862d99858,07-Apr-2016,19.5514207,f,13,low symptoms,18,35,simple actions,To Kick,180,1,2.44815424,0,,1,1,85
8ef7d23e669a7eb77648cca862d99858,07-Apr-2016,19.5514207,f,13,low symptoms,18,36,complex actions,To Get Attention,0,1,3.27647008,1,0.9927807,2,2,85
8ef7d23e669a7eb77648cca862d99858,07-Apr-2016,19.5514207,f,13,low symptoms,19,37,complex actions,To Clean,247,1,7.32352451,1,1.38859626,1,1,85
8ef7d23e669a7eb77648cca862d99858,07-Apr-2016,19.5514207,f,13,low symptoms,19,38,simple actions,To Lift,0,1,11.05530373,0,,3,3,85
8ef7d23e669a7eb77648cca862d99858,07-Apr-2016,19.5514207,f,13,low symptoms,20,39,simple actions,To Kick,247,1,8.32084323,0,,4,4,85
8ef7d23e669a7eb77648cca862d99858,07-Apr-2016,19.5514207,f,13,low symptoms,20,40,complex actions,To Play a Sport,247,1,6.41000695,1,1.20980834,3,3,85
8ef7d23e669a7eb77648cca862d99858,07-Apr-2016,19.5514207,f,13,low symptoms,21,41,complex actions,To Argue,180,1,16.38337442,1,0.85875141,1,1,85
8ef7d23e669a7eb77648cca862d99858,07-Apr-2016,19.5514207,f,13,low symptoms,21,42,simple actions,To Grab,247,0,12.39734325,0,,4,3,85
8ef7d23e669a7eb77648cca862d99858,07-Apr-2016,19.5514207,f,13,low symptoms,22,43,simple actions,To Grab,0,0,9.83218739,0,,2,1,85
8ef7d23e669a7eb77648cca862d99858,07-Apr-2016,19.5514207,f,13,low symptoms,22,44,complex actions,To Stretch,135,0,16.64297651,1,2.03642643,2,3,85
8ef7d23e669a7eb77648cca862d99858,07-Apr-2016,19.5514207,f,13,low symptoms,23,45,simple actions,To Push,0,1,8.93924465,1,0.84049928,3,3,85
8ef7d23e669a7eb77648cca862d99858,07-Apr-2016,19.5514207,f,13,low symptoms,23,46,complex actions,To Play an Instrument,135,1,10.01495072,0,,1,1,85
8ef7d23e669a7eb77648cca862d99858,07-Apr-2016,19.5514207,f,13,low symptoms,24,47,simple actions,To Jump,135,0,10.02173951,0,,4,2,85
8ef7d23e669a7eb77648cca862d99858,07-Apr-2016,19.5514207,f,13,low symptoms,24,48,complex actions,To Play an Instrument,180,1,5.39710943,1,0.93756693,2,2,85
8ef7d23e669a7eb77648cca862d99858,07-Apr-2016,19.5514207,f,13,low symptoms,25,49,complex actions,To Hurry up,0,1,11.1302091,0,,1,1,85
8ef7d23e669a7eb77648cca862d99858,07-Apr-2016,19.5514207,f,13,low symptoms,25,50,simple actions,To Punch,0,1,19.44561907,1,1.18926723,1,1,85
8ef7d23e669a7eb77648cca862d99858,07-Apr-2016,19.5514207,f,13,low symptoms,26,51,simple actions,To Lift,180,0,14.60080391,0,,4,2,85
8ef7d23e669a7eb77648cca862d99858,07-Apr-2016,19.5514207,f,13,low symptoms,26,52,complex actions,To Play an Instrument,247,1,7.31926514,1,1.30910087,1,1,85
8ef7d23e669a7eb77648cca862d99858,07-Apr-2016,19.5514207,f,13,low symptoms,27,53,simple actions,To Hammer,0,1,14.21518819,0,,3,3,85
8ef7d23e669a7eb77648cca862d99858,07-Apr-2016,19.5514207,f,13,low symptoms,27,54,complex actions,To Play a Sport,180,0,11.38960563,1,1.51125784,4,3,85
8ef7d23e669a7eb77648cca862d99858,07-Apr-2016,19.5514207,f,13,low symptoms,28,55,complex actions,To Clean,135,1,10.57892816,0,,1,1,85
8ef7d23e669a7eb77648cca862d99858,07-Apr-2016,19.5514207,f,13,low symptoms,28,56,simple actions,To Punch,135,0,6.349113,1,0.83512002,3,4,85
8ef7d23e669a7eb77648cca862d99858,07-Apr-2016,19.5514207,f,13,low symptoms,29,57,complex actions,To Dance,247,1,22.83676829,1,1.62568984,2,2,85
8ef7d23e669a7eb77648cca862d99858,07-Apr-2016,19.5514207,f,13,low symptoms,29,58,simple actions,To Punch,247,0,7.60871823,0,,4,3,85
8ef7d23e669a7eb77648cca862d99858,07-Apr-2016,19.5514207,f,13,low symptoms,30,59,complex actions,To Clean,0,1,7.28694065,1,0.9867944,3,3,85
8ef7d23e669a7eb77648cca862d99858,07-Apr-2016,19.5514207,f,13,low symptoms,30,60,simple actions,To Hammer,135,1,6.76606686,0,,4,4,85
8ef7d23e669a7eb77648cca862d99858,07-Apr-2016,19.5514207,f,13,low symptoms,31,61,simple actions,To Grab,180,1,14.44148349,0,,2,2,85
8ef7d23e669a7eb77648cca862d99858,07-Apr-2016,19.5514207,f,13,low symptoms,31,62,complex actions,To Hurry up,247,1,4.90603897,1,1.07212493,1,1,85
8ef7d23e669a7eb77648cca862d99858,07-Apr-2016,19.5514207,f,13,low symptoms,32,63,complex actions,To Dance,180,1,7.78016355,1,0.91669683,3,3,85
8ef7d23e669a7eb77648cca862d99858,07-Apr-2016,19.5514207,f,13,low symptoms,32,64,simple actions,To Point,180,0,16.05670603,0,,1,2,85
8ef7d23e669a7eb77648cca862d99858,07-Apr-2016,19.5514207,f,13,low symptoms,33,65,simple actions,To Wave,135,1,3.43727198,0,,3,3,85
8ef7d23e669a7eb77648cca862d99858,07-Apr-2016,19.5514207,f,13,low symptoms,33,66,complex actions,To Argue,0,1,9.42057568,1,1.36532528,2,2,85
8ef7d23e669a7eb77648cca862d99858,07-Apr-2016,19.5514207,f,13,low symptoms,34,67,complex actions,To Play an Instrument,0,1,5.75487911,1,1.56713899,1,1,85
8ef7d23e669a7eb77648cca862d99858,07-Apr-2016,19.5514207,f,13,low symptoms,34,68,simple actions,To Punch,180,0,7.9375608,0,,3,4,85
8ef7d23e669a7eb77648cca862d99858,07-Apr-2016,19.5514207,f,13,low symptoms,35,69,simple actions,To Point,135,0,11.18322697,0,,1,2,85
8ef7d23e669a7eb77648cca862d99858,07-Apr-2016,19.5514207,f,13,low symptoms,35,70,complex actions,To Fight,0,1,5.32364622,1,1.07533889,1,1,85
8ef7d23e669a7eb77648cca862d99858,07-Apr-2016,19.5514207,f,13,low symptoms,36,71,complex actions,To Dance,135,1,6.09264405,1,1.1920454,3,3,85
8ef7d23e669a7eb77648cca862d99858,07-Apr-2016,19.5514207,f,13,low symptoms,36,72,simple actions,To Wave,0,1,10.17102795,0,,4,4,85
d8d148da95b59234d2be3e2711dfd625,07-Apr-2016,21.84852783,f,10,low symptoms,1,1,simple actions,To Grab,180,0,10.08616881,1,2.20937767,3,4,62
d8d148da95b59234d2be3e2711dfd625,07-Apr-2016,21.84852783,f,10,low symptoms,1,2,complex actions,To Hurry up,180,1,10.83835281,0,,4,4,62
d8d148da95b59234d2be3e2711dfd625,07-Apr-2016,21.84852783,f,10,low symptoms,2,3,complex actions,To Get Attention,180,1,12.6073652,1,2.23566914,3,3,62
d8d148da95b59234d2be3e2711dfd625,07-Apr-2016,21.84852783,f,10,low symptoms,2,4,simple actions,To Hammer,0,0,16.10087156,0,,1,3,62
d8d148da95b59234d2be3e2711dfd625,07-Apr-2016,21.84852783,f,10,low symptoms,3,5,simple actions,To Point,180,0,7.99115892,1,1.37635945,2,4,62
d8d148da95b59234d2be3e2711dfd625,07-Apr-2016,21.84852783,f,10,low symptoms,3,6,complex actions,To Hurry up,135,1,10.15783484,0,,4,4,62
d8d148da95b59234d2be3e2711dfd625,07-Apr-2016,21.84852783,f,10,low symptoms,4,7,complex actions,To Stretch,0,0,18.75587967,0,,1,4,62
d8d148da95b59234d2be3e2711dfd625,07-Apr-2016,21.84852783,f,10,low symptoms,4,8,simple actions,To Lift,135,1,8.11694229,1,1.00227858,2,2,62
d8d148da95b59234d2be3e2711dfd625,07-Apr-2016,21.84852783,f,10,low symptoms,5,9,complex actions,To Clean,135,0,17.98624654,1,1.06895398,3,1,62
d8d148da95b59234d2be3e2711dfd625,07-Apr-2016,21.84852783,f,10,low symptoms,5,10,simple actions,To Point,135,1,15.27252505,0,,2,2,62
d8d148da95b59234d2be3e2711dfd625,07-Apr-2016,21.84852783,f,10,low symptoms,6,11,complex actions,To Stretch,180,0,8.8283541,1,1.19191229,4,2,62
d8d148da95b59234d2be3e2711dfd625,07-Apr-2016,21.84852783,f,10,low symptoms,6,12,simple actions,To Grab,0,0,12.97256023,0,,3,4,62
d8d148da95b59234d2be3e2711dfd625,07-Apr-2016,21.84852783,f,10,low symptoms,7,13,simple actions,To Lift,247,1,8.49767508,1,1.22747173,2,2,62
d8d148da95b59234d2be3e2711dfd625,07-Apr-2016,21.84852783,f,10,low symptoms,7,14,complex actions,To Stretch,135,0,5.84859247,0,,2,4,62
d8d148da95b59234d2be3e2711dfd625,07-Apr-2016,21.84852783,f,10,low symptoms,8,15,complex actions,To Argue,0,0,6.8251762,1,1.19819515,1,2,62
d8d148da95b59234d2be3e2711dfd625,07-Apr-2016,21.84852783,f,10,low symptoms,8,16,simple actions,To Point,0,0,11.47420763,0,,1,4,62
d8d148da95b59234d2be3e2711dfd625,07-Apr-2016,21.84852783,f,10,low symptoms,9,17,simple actions,To Punch,247,0,12.09623602,1,1.18606871,1,2,62
d8d148da95b59234d2be3e2711dfd625,07-Apr-2016,21.84852783,f,10,low symptoms,9,18,complex actions,To Play a Sport,180,0,17.31712099,0,,3,2,62
d8d148da95b59234d2be3e2711dfd625,07-Apr-2016,21.84852783,f,10,low symptoms,10,19,simple actions,To Kick,180,0,11.5638548,1,1.29729334,4,1,62
d8d148da95b59234d2be3e2711dfd625,07-Apr-2016,21.84852783,f,10,low symptoms,10,20,complex actions,To Dance,0,1,9.68035212,0,,1,1,62
d8d148da95b59234d2be3e2711dfd625,07-Apr-2016,21.84852783,f,10,low symptoms,11,21,simple actions,To Lift,180,1,9.2328221,0,,2,2,62
d8d148da95b59234d2be3e2711dfd625,07-Apr-2016,21.84852783,f,10,low symptoms,11,22,complex actions,To Play an Instrument,180,1,8.87162534,1,1.29460668,1,1,62
d8d148da95b59234d2be3e2711dfd625,07-Apr-2016,21.84852783,f,10,low symptoms,12,23,complex actions,To Argue,247,1,6.36405851,1,1.21272565,1,1,62
d8d148da95b59234d2be3e2711dfd625,07-Apr-2016,21.84852783,f,10,low symptoms,12,24,simple actions,To Push,135,0,5.50211604,0,,1,3,62
d8d148da95b59234d2be3e2711dfd625,07-Apr-2016,21.84852783,f,10,low symptoms,13,25,complex actions,To Play an Instrument,247,0,11.87561747,0,,2,1,62
d8d148da95b59234d2be3e2711dfd625,07-Apr-2016,21.84852783,f,10,low symptoms,13,26,simple actions,To Jump,247,0,11.44097769,1,1.19774757,4,2,62
d8d148da95b59234d2be3e2711dfd625,07-Apr-2016,21.84852783,f,10,low symptoms,14,27,complex actions,To Dance,180,1,8.11521915,1,1.5258794,3,3,62
d8d148da95b59234d2be3e2711dfd625,07-Apr-2016,21.84852783,f,10,low symptoms,14,28,simple actions,To Push,180,0,8.59606771,0,,1,4,62
d8d148da95b59234d2be3e2711dfd625,07-Apr-2016,21.84852783,f,10,low symptoms,15,29,complex actions,To Get Attention,247,1,6.9708719,1,1.33921958,4,4,62
d8d148da95b59234d2be3e2711dfd625,07-Apr-2016,21.84852783,f,10,low symptoms,15,30,simple actions,To Lift,0,1,14.15166235,0,,1,1,62
d8d148da95b59234d2be3e2711dfd625,07-Apr-2016,21.84852783,f,10,low symptoms,16,31,simple actions,To Wave,180,1,8.2727078,1,1.19553815,3,3,62
d8d148da95b59234d2be3e2711dfd625,07-Apr-2016,21.84852783,f,10,low symptoms,16,32,complex actions,To Play a Sport,0,0,7.68103062,0,,2,3,62
d8d148da95b59234d2be3e2711dfd625,07-Apr-2016,21.84852783,f,10,low symptoms,17,33,simple actions,To Push,247,0,5.1308829,0,,1,2,62
d8d148da95b59234d2be3e2711dfd625,07-Apr-2016,21.84852783,f,10,low symptoms,17,34,complex actions,To Clean,180,1,13.6585932,1,1.87502221,2,2,62
d8d148da95b59234d2be3e2711dfd625,07-Apr-2016,21.84852783,f,10,low symptoms,18,35,complex actions,To Play an Instrument,0,1,8.19599936,1,1.14857204,3,3,62
d8d148da95b59234d2be3e2711dfd625,07-Apr-2016,21.84852783,f,10,low symptoms,18,36,simple actions,To Kick,0,1,7.604711,0,,3,3,62
d8d148da95b59234d2be3e2711dfd625,07-Apr-2016,21.84852783,f,10,low symptoms,19,37,simple actions,To Punch,135,0,3.55054641,1,1.03388252,4,2,62
d8d148da95b59234d2be3e2711dfd625,07-Apr-2016,21.84852783,f,10,low symptoms,19,38,complex actions,To Fight,247,0,5.00629686,0,,3,2,62
d8d148da95b59234d2be3e2711dfd625,07-Apr-2016,21.84852783,f,10,low symptoms,20,39,complex actions,To Dance,135,1,7.4690343,1,1.54651192,4,4,62
d8d148da95b59234d2be3e2711dfd625,07-Apr-2016,21.84852783,f,10,low symptoms,20,40,simple actions,To Wave,135,1,8.27581931,0,,3,3,62
d8d148da95b59234d2be3e2711dfd625,07-Apr-2016,21.84852783,f,10,low symptoms,21,41,simple actions,To Point,247,0,3.84049436,1,1.09261311,2,3,62
d8d148da95b59234d2be3e2711dfd625,07-Apr-2016,21.84852783,f,10,low symptoms,21,42,complex actions,To Argue,180,1,7.53876094,0,,4,4,62
d8d148da95b59234d2be3e2711dfd625,07-Apr-2016,21.84852783,f,10,low symptoms,22,43,complex actions,To Clean,0,1,6.75759918,0,,2,2,62
d8d148da95b59234d2be3e2711dfd625,07-Apr-2016,21.84852783,f,10,low symptoms,22,44,simple actions,To Hammer,135,0,8.55024233,1,1.21230677,4,1,62
d8d148da95b59234d2be3e2711dfd625,07-Apr-2016,21.84852783,f,10,low symptoms,23,45,complex actions,To Fight,135,0,9.22899339,0,,4,2,62
d8d148da95b59234d2be3e2711dfd625,07-Apr-2016,21.84852783,f,10,low symptoms,23,46,simple actions,To Punch,180,0,10.64430074,1,2.74755842,1,3,62
d8d148da95b59234d2be3e2711dfd625,07-Apr-2016,21.84852783,f,10,low symptoms,24,47,simple actions,To Jump,0,0,7.30603192,1,1.13037112,2,1,62
d8d148da95b59234d2be3e2711dfd625,07-Apr-2016,21.84852783,f,10,low symptoms,24,48,complex actions,To Stretch,247,0,6.75116977,0,,1,3,62
d8d148da95b59234d2be3e2711dfd625,07-Apr-2016,21.84852783,f,10,low symptoms,25,49,complex actions,To Fight,180,0,5.62439196,1,1.69357453,4,1,62
d8d148da95b59234d2be3e2711dfd625,07-Apr-2016,21.84852783,f,10,low symptoms,25,50,simple actions,To Push,0,1,5.40228853,0,,2,2,62
d8d148da95b59234d2be3e2711dfd625,07-Apr-2016,21.84852783,f,10,low symptoms,26,51,simple actions,To Jump,135,0,4.13715664,1,1.98060122,1,4,62
d8d148da95b59234d2be3e2711dfd625,07-Apr-2016,21.84852783,f,10,low symptoms,26,52,complex actions,To Hurry up,247,0,3.13380757,0,,4,2,62
d8d148da95b59234d2be3e2711dfd625,07-Apr-2016,21.84852783,f,10,low symptoms,27,53,complex actions,To Fight,0,0,9.24749809,1,0.99598353,2,1,62
d8d148da95b59234d2be3e2711dfd625,07-Apr-2016,21.84852783,f,10,low symptoms,27,54,simple actions,To Grab,247,1,6.56459517,0,,1,1,62
d8d148da95b59234d2be3e2711dfd625,07-Apr-2016,21.84852783,f,10,low symptoms,28,55,complex actions,To Clean,247,0,7.28089591,1,1.06929129,2,1,62
d8d148da95b59234d2be3e2711dfd625,07-Apr-2016,21.84852783,f,10,low symptoms,28,56,simple actions,To Wave,247,1,7.14094285,0,,1,1,62
d8d148da95b59234d2be3e2711dfd625,07-Apr-2016,21.84852783,f,10,low symptoms,29,57,simple actions,To Hammer,247,0,3.99440458,1,1.01941791,3,1,62
d8d148da95b59234d2be3e2711dfd625,07-Apr-2016,21.84852783,f,10,low symptoms,29,58,complex actions,To Dance,247,0,5.41004198,0,,1,2,62
d8d148da95b59234d2be3e2711dfd625,07-Apr-2016,21.84852783,f,10,low symptoms,30,59,complex actions,To Play an Instrument,135,1,4.04008393,0,,3,3,62
d8d148da95b59234d2be3e2711dfd625,07-Apr-2016,21.84852783,f,10,low symptoms,30,60,simple actions,To Jump,180,0,5.37266086,1,2.02742392,4,3,62
d8d148da95b59234d2be3e2711dfd625,07-Apr-2016,21.84852783,f,10,low symptoms,31,61,simple actions,To Punch,0,0,7.75409616,1,1.12169709,3,1,62
d8d148da95b59234d2be3e2711dfd625,07-Apr-2016,21.84852783,f,10,low symptoms,31,62,complex actions,To Argue,135,1,7.5900349,0,,4,4,62
d8d148da95b59234d2be3e2711dfd625,07-Apr-2016,21.84852783,f,10,low symptoms,32,63,complex actions,To Hurry up,0,0,9.0605354,1,0.9751408,1,3,62
d8d148da95b59234d2be3e2711dfd625,07-Apr-2016,21.84852783,f,10,low symptoms,32,64,simple actions,To Hammer,180,0,5.07367369,0,,2,1,62
d8d148da95b59234d2be3e2711dfd625,07-Apr-2016,21.84852783,f,10,low symptoms,33,65,complex actions,To Get Attention,0,1,7.69785118,1,1.01073235,1,1,62
d8d148da95b59234d2be3e2711dfd625,07-Apr-2016,21.84852783,f,10,low symptoms,33,66,simple actions,To Wave,0,1,8.49302417,0,,3,3,62
d8d148da95b59234d2be3e2711dfd625,07-Apr-2016,21.84852783,f,10,low symptoms,34,67,simple actions,To Kick,135,0,8.47125557,1,1.12206513,4,1,62
d8d148da95b59234d2be3e2711dfd625,07-Apr-2016,21.84852783,f,10,low symptoms,34,68,complex actions,To Play a Sport,247,0,6.65884752,0,,4,1,62
d8d148da95b59234d2be3e2711dfd625,07-Apr-2016,21.84852783,f,10,low symptoms,35,69,complex actions,To Play a Sport,135,0,5.66812567,1,1.03113166,3,2,62
d8d148da95b59234d2be3e2711dfd625,07-Apr-2016,21.84852783,f,10,low symptoms,35,70,simple actions,To Grab,135,0,3.03866488,0,,1,3,62
d8d148da95b59234d2be3e2711dfd625,07-Apr-2016,21.84852783,f,10,low symptoms,36,71,complex actions,To Get Attention,135,0,2.39510875,1,1.01952431,1,2,62
